gyro_x,gyro_y,gyro_z,label
-1.1995725112017173,-1.6221813858384801,-0.9991159536271895,1.0
-0.655153035050586,-0.21151488153519613,-0.9002922193748422,1.0
14.590958758969002,14.326916828063641,1.643462600336826,1.0
-0.12447117364347682,0.24055008017079166,-0.17188764694463735,0.0
1.203910996961454,0.4262617758811409,0.3180720894155335,0.0
0.7545513737069202,0.0668721329208252,0.9704049502981995,0.0
0.0010246237407084274,1.1043136777603966,0.06917382540602698,1.0
-0.2402305535465852,-0.20746314313664133,-0.6824273651629185,0.0
-0.9676140505707934,-0.32926783311174973,0.42071155148506206,0.0
-0.4787632397340492,-0.1446227011218594,-0.6857100532810292,0.0
0.08313417737941559,-0.24925611561097696,-0.007112182477107787,0.0
0.19823609040555915,0.21204722526510328,0.44657698660289125,1.0
0.05570567867207276,-2.4904497120603586,1.8478038752474917,1.0
-0.13889013988393065,-0.5860308257852196,0.3081388174183667,1.0
0.26644303442180534,-0.8738757144798495,0.5676556373546204,0.0
18.20050285236135,9.191132001227805,2.4773635446755877,1.0
0.6086412093943262,-0.40463962737380677,-0.617176442244832,0.0
-0.07065998475298294,-0.4284946472191932,-1.0324355663642901,0.0
0.009896175553553658,-0.27995696588086527,-0.7978889586537263,0.0
0.5348247945439814,-0.8868612511299335,0.08630750544352997,0.0
-0.4156868516781687,1.1825668423517075,1.6724823056846732,1.0
-0.35211935933180827,0.11050545513283339,-0.030169312136626304,0.0
-8.914723935337696,-2.5269698696871155,10.254917226645652,1.0
0.47618147167664715,0.21650154604705707,0.05692395040416536,0.0
0.7942240377015131,-0.6055471074790675,-0.3109239604460646,1.0
1.6744192433707326,-0.6876567815019891,0.02158815658774331,1.0
-2.103536263908319,-0.011539371544247674,-1.3486812060081577,1.0
-12.43085124670511,-7.021666700373831,-6.882060776385458,1.0
-1.8509648141568815,-1.8878816481761946,-8.849958535943486,1.0
-0.27564657881229593,-0.24662924288579208,0.45019390898589734,0.0
0.2521895088685878,0.25761427673671744,0.524450554423264,0.0
0.25273823494832415,0.013620633409988921,0.843008503120884,0.0
-0.21104933084376043,-0.002848765613349443,-0.10222671772498983,0.0
-0.6082101419221252,-0.6401513734820289,0.035062096521159256,1.0
-0.47352520819404226,0.39799916406734714,0.3287826704944345,0.0
-0.0591651089231592,-0.5156607730256145,-0.5268874216765105,0.0
-4.317946374611181,2.9020984033606596,-10.616720251324548,1.0
19.98036885529065,-6.977178132224211,8.213934544955304,1.0
21.403483795019017,7.34814128365159,-6.1270011239748925,1.0
0.6943244584509074,1.5429615441947317,0.8451775976982372,1.0
0.04671233712309009,-0.2824729078901269,-1.337858488813286,0.0
5.007979627404939,-5.072329396674298,19.769519540449966,1.0
-0.7605147982679566,0.2620089944657046,-0.24151018207785424,0.0
-0.21226906059135445,-0.11203040263404498,0.0869703405273397,0.0
0.14903387514339478,-0.9345879261565446,-0.2709980769838756,1.0
-1.5880489663294979,1.9292536919171472,-21.262251682138906,1.0
-21.18853563362611,-18.095907607803582,-7.459048573318704,1.0
0.5454504668177237,-0.03518909347821671,-0.22255172450883715,0.0
-0.762838459160387,-0.08656603391041037,0.35892467830954383,0.0
0.02737001504388296,-0.051116880578566434,0.12225395770878264,0.0
-0.02305735550804699,0.35221931491935843,-0.8368897967018611,0.0
1.266047740666654,-0.05960583323210411,0.6312210385459948,0.0
0.09888153962931573,1.0390188082324059,2.195443470354482,1.0
-0.6531744729261053,-0.3196873434162962,0.3701462339335662,0.0
-0.22116116454438464,-0.3156196971250278,0.13444771901239425,0.0
13.42103801940876,-13.681219645301791,-17.722308614994,1.0
0.11972293438940983,-0.29412355814564567,-0.09581091372430636,0.0
8.69481594563699,14.163819352518406,-11.26472074187924,1.0
2.9528552219008835,-13.976534661520969,3.2881797229593075,1.0
-2.622122377492281,-0.7033043525195727,5.187265054791039,1.0
0.6316675582078256,-2.0104683517761854,0.11824196950236937,1.0
-0.8634858772878944,0.553971507786911,0.2828284437112806,0.0
6.053119392340781,-8.575992561287059,-14.10319660146623,1.0
-0.594474141257057,0.20931737714578535,-0.9457942618067038,1.0
-1.3744407576375348,0.570543206564481,0.04642407213585445,0.0
2.8978310580314535,-0.5919777947397342,-0.29699658573556736,1.0
0.05169196642211305,-1.6389482600161602,-9.723559142745216,1.0
0.34824650631759835,-0.211776034985743,-0.4695808660501742,0.0
2.938306820744988,-0.33343648591819464,-1.549678316560232,1.0
-0.49059233587906215,-0.37080356009479726,0.5363876255391771,0.0
0.18197814603422985,0.3647496591928949,-0.1928103230068503,0.0
-0.5083674894456226,-0.11905762614413049,-0.002870146245059552,0.0
-0.8752920601525204,0.33339535608802867,1.042270435069749,1.0
-0.1383516315291725,-0.1744572275175955,-0.5260388679763157,1.0
0.8717045256545324,-0.12145826078320032,-0.14925289931146135,0.0
-1.721217517010566,-0.5117010814055216,-0.24686468838337466,1.0
-0.24645727550685878,-0.38229611230161326,-0.3543318579513117,0.0
0.1531870288085677,0.05438750542440256,0.11608135548398668,0.0
-19.646314666657503,3.8413130043292085,-3.4732141057833203,1.0
0.45974192611910547,-0.8281765255841638,-0.372981844023187,0.0
0.363827633818676,-0.8537251992676338,0.24514610843290116,0.0
-0.3656104947752869,0.44754222205112726,-0.0728151332504726,0.0
-0.717003694365128,-0.05012122622669126,-0.2081855746437785,1.0
-0.13838491454516713,0.46547099699572164,0.41019756718292083,0.0
0.07435812876837204,-0.2536854003917242,-0.32180696404662507,0.0
4.124183935538163,1.0471296284686775,-17.600290336678672,1.0
14.630388879731713,4.98907733557399,-8.32910060144507,1.0
-13.801408256160329,30.350867016089445,-10.32432948813179,1.0
0.5341669659784648,-0.4609386708781638,0.5697634139460354,0.0
-1.445171586260203,8.168003544173594,8.119076767715898,1.0
-0.9724205143821474,-0.9255887362193367,-0.33795701207685874,1.0
0.38431669839097454,0.2303571890115464,0.5302027949067679,0.0
-0.7227881586735287,0.17297005698561888,0.29787311578151326,1.0
-0.6264099905085562,-1.515635145939977,0.19404049048103086,1.0
-0.21346918861730477,0.6311510442732512,0.023594445180987005,0.0
-0.4892246537900166,0.20245460825464173,0.9178251300312054,0.0
0.2263723483798641,0.020879844319108148,0.4353463247101342,0.0
-0.5262792966472195,0.09811714837456223,0.21733750031066953,0.0
1.3163801415686636,-0.3986760515921329,-0.845698308180972,1.0
-0.14767203014286256,0.8085446212195821,0.49331182341251223,1.0
-0.35327929005032044,0.3257084919848064,0.19315574514056671,0.0
-0.576593759338768,-0.001591870871930715,0.14672010297122562,0.0
1.0046530771378117,0.5405970555226738,-0.9913493044041339,1.0
0.27864347702159986,0.5053141749253375,0.3270938037466177,0.0
-0.0702420615081113,0.42837773179808847,-0.7359235835837619,0.0
5.91241202483387,29.769890210030393,-7.202970822125893,1.0
0.1959478907760984,0.28156927965406897,-0.312724839433398,0.0
-23.279322844614804,20.578839351070638,-4.529500746686412,1.0
0.2563645265263227,-0.4134928319207982,0.0236242839620962,0.0
0.8627258625565583,-0.6423831093265299,0.11829134798756495,0.0
0.40593722734883664,0.5821004537584005,0.15317294673896675,0.0
-0.11884406807816197,0.13354619819952931,-0.29418531315872964,0.0
-1.2528327299256345,1.1181963605573992,-0.907838256639441,1.0
12.699252715587077,3.0031859215313057,8.845381443824685,1.0
-0.6437187639986681,-0.0943041688594625,0.11412245465890475,0.0
-0.7021737156473701,-0.13138329955766817,0.015828208132866256,0.0
-0.880019169855522,2.297883228143982,0.8565714515879584,1.0
0.3380887601328667,-0.0036314482125346993,0.17147668869837,0.0
0.5889869598477364,0.3471858434302871,-0.5356738483596074,0.0
1.5100795802628055,0.6338342860938878,1.354015551816575,1.0
0.05285581724158145,0.4265147584407883,-0.6790197690453567,0.0
0.16350643894387962,1.0791567182530004,-0.613984197333319,0.0
0.7730318118685466,-0.5983989851929883,-0.39539493407302573,0.0
-0.09460301160649026,-0.26075194672264035,-0.4831737928575142,0.0
-0.4335408743439731,0.4260059522678947,-0.10060458836813657,0.0
0.5458194519382874,-0.5442326575582205,1.1373792663028222,1.0
0.8953411270300728,0.7386518646091096,-0.01939533698798243,1.0
0.12149611516701869,-0.13520423167814455,-0.2978543266084712,0.0
-7.434990530186759,-12.455826833500067,-1.7939156097050177,1.0
-1.0075806863146595,-0.8418022671220259,0.3000816880279971,0.0
-3.515321696480239,0.5303655478408734,7.268701089702695,1.0
-27.07383849974888,17.72872016938011,1.160562767597543,1.0
6.667256186137491,3.6126407350240326,-12.611897714902456,1.0
-5.549438695961918,0.2033069037168943,-5.476979091017327,1.0
0.44486381529499547,-12.421360645695696,2.5444278595662273,1.0
0.11641278001272751,0.21553164214615297,-0.6151935696614435,0.0
0.7558082316874162,1.041378055430452,5.145685590753581,1.0
0.5280797398741581,0.09584264024627956,-0.36021345714394887,0.0
-1.0205516567296389,-1.2086900551054456,0.30868825622727925,1.0
16.83259394026203,14.778324559080762,3.419926141749556,1.0
0.2303597823454087,-2.019815119712545,0.5764313753772324,1.0
0.6808115626132224,-1.1754130684564967,0.8151998882657351,1.0
-6.981387565662923,1.5201244715186981,-1.2261552930674728,1.0
7.063817345375209,-6.948361136661515,-17.088425964205033,1.0
0.27159351918919217,-0.37685646012771706,-0.46558581736175836,1.0
0.6080783080563276,0.2908496960704091,-0.4245903626054964,0.0
-8.463128572176005,30.997478553329465,-9.613508151479577,1.0
0.15488600294603613,0.6942015440117907,0.6306604448656727,0.0
1.7820740681229315,0.9950826075600713,-0.33614107211449606,1.0
0.5761214949314312,0.17099195746106927,-0.5861126969953148,0.0
0.1712169600322992,0.1815891211948784,-0.8674428725311064,0.0
0.3724818414085777,0.13621292796526502,0.8360929289369319,1.0
-0.2973085345130099,0.8266098860174793,0.20609186934483217,0.0
0.6202430182750588,-0.5655677294757019,-0.10853400369678545,0.0
-9.798704482467171,6.530131610858254,0.15858228060698976,1.0
8.28956702988913,10.561443317430543,-15.144499522923239,1.0
1.2492511015857684,-0.5294407612366049,0.44097132818606527,0.0
5.638302769762631,30.600745764871007,-10.978245384592471,1.0
0.08714407262413738,-0.7574485381029384,0.2822408918286135,0.0
-2.4107994286057677,11.972352369521618,7.809952325404596,1.0
0.014760281711142985,0.14889006359604368,-0.5010890748972009,0.0
4.530089071513611,4.242451174421806,-8.320969861583807,1.0
0.5166889629297885,-0.3463829567668235,-0.4934385985585769,0.0
26.850630421163935,-3.3777199902158035,-0.14538988865074098,1.0
-0.3714134273946598,0.6599592828515727,-0.7867293005591631,0.0
-5.035999934009876,-21.440501473567736,12.7028172813555,1.0
2.4470966884163383,-6.276645274297091,5.109285259555477,1.0
0.06347509910994405,-0.23771329620250642,-0.24978761848523956,0.0
-0.20090190792323215,0.7142596174026671,-0.131952148717621,0.0
0.8775494452772633,-0.17628628363519683,0.003601640229349637,0.0
0.241396691644131,-1.3430767766308973,-0.00784549311319997,1.0
0.14894498412604967,-0.283530567285025,-1.3499585244788266,1.0
-3.4197086897163427,7.681174069418036,25.07477182877951,1.0
-23.410192391760013,-5.137071118590838,-1.9526444244263024,1.0
4.397139366956293,-6.973819806032382,9.13606921997464,1.0
8.058313794200062,-3.5182870860138573,-11.066565581490458,1.0
2.885304409706739,-6.982379896750554,-10.372489314765911,1.0
-0.46211711964406943,-0.46787384651826724,-0.20250817195538232,0.0
1.2276265341684736,-0.038532613503262605,-0.866887612403512,1.0
-0.6660658648759584,-0.33382601311342774,1.1903177052487737,1.0
-14.499469412578598,6.197177086707058,3.2345088163132707,1.0
0.4351350174822048,-0.4174286681057489,0.415985356948213,0.0
21.896761351242667,5.042828393296947,-12.156129270368105,1.0
0.5729808461076602,0.27212759370039397,-1.0058363653003364,0.0
-0.11893462896163431,0.5787449437847597,-0.27972464517035944,0.0
-12.348609527758203,-16.75401487215264,15.108050892334948,1.0
-0.46521609212538684,0.2108087469617536,0.09317216077476877,1.0
-4.249358924526412,-9.229039443183934,4.853075993790085,1.0
-11.545736385079561,-11.739427589164213,2.9050161984955287,1.0
0.22662907617673797,0.31165838284558434,0.3711295658477763,0.0
0.9895620601619692,-0.5037291785869729,-0.48851745684618336,0.0
0.7061155526470597,0.39643733137192344,-0.08376002130323366,1.0
0.03066240065034475,-0.6555800222409626,0.7503109661561201,0.0
0.5006601494845285,0.4130600089008624,-0.29850317008928595,0.0
-0.5770124892358421,-0.5544802565347781,-1.3198948032813251,1.0
0.5463468833506887,0.7389734103034887,-0.31797848782422033,0.0
0.7127949246056001,-0.6177269382270404,-0.2543144313522563,0.0
-4.949983788362909,-12.76944608779025,1.3346063574367582,1.0
0.26614556452109134,0.682613200208719,0.2958038596163078,0.0
-0.21233367611022255,0.27360379530839557,0.1465310454212731,0.0
0.41505329506748895,0.2327074247014524,0.2571676705355216,0.0
0.4963370139135406,-0.9421585419028037,-0.14250417297414877,0.0
0.4401862791562469,-0.023985361490309887,0.10662581228036487,0.0
-0.15074670736610843,-0.5950898672678965,-0.8000591582033149,0.0
-0.931920477675045,-0.0004241204710390819,-0.5517991477391807,0.0
0.37590265188840394,-0.0671833899694963,0.22186313551366516,0.0
-8.033812575008241,-22.941834656933008,4.197226366587155,1.0
-0.9838848643356934,-0.5932100600899082,0.852182129502868,1.0
-1.4248918960344172,-0.16573905018254909,-0.8841750907168557,0.0
-0.3505637710467683,0.9159953031849877,-1.0775766669316862,1.0
-0.4025648704192378,0.2468762720055782,0.20003931026118524,0.0
0.202493883061671,0.11070359056402328,-0.056958324731904465,0.0
1.4274873996194333,1.1880833196270868,0.8081645939852109,0.0
-0.22279346309467207,1.407277609483276,0.8876079459544901,1.0
-22.74431275091284,2.5113203753081077,6.475370669968386,1.0
-2.6998799767659913,2.289432851011894,-1.8390707872288736,1.0
-11.113754093546735,8.041726089308895,-0.5627267718787811,1.0
0.8153552808074261,-2.011726275273932,-0.8393105820635153,1.0
1.1172870302349223,1.4104469409393934,1.7920749069379607,1.0
-14.682484936582851,-11.767682387164395,-8.289245134860423,1.0
-8.86660786217227,9.332468032588086,0.9163742762633329,1.0
18.385783278234737,17.390803153997098,-10.720762285671459,1.0
0.1505771579287564,-0.9992415243220449,-1.3448097156230912,1.0
8.68787891496387,10.562326708002672,7.077621796030283,1.0
-0.21806954281149138,-0.85746080830222,0.5435252847304338,0.0
0.04355690839134717,-0.1979980323170917,0.6034446315666926,1.0
0.3917676933324924,0.365993337971705,-0.511953887880482,1.0
-0.4639804133467926,0.3479659730458227,-0.18190097639862615,0.0
0.44513780915725926,-0.9047578010724611,-1.925252931541719,1.0
-17.405636155429345,-4.69634576041734,19.91591311689471,1.0
0.3826792665768311,-0.5366383896591282,-0.43846972856180516,0.0
-1.9848933625785337,-9.65044329905581,-15.07140742900846,1.0
0.9274292724987796,0.20696871641723816,0.8041062381061143,1.0
0.1338947310948061,0.37989172507170355,0.44249339045804736,0.0
-0.927761047174802,0.43009408601219973,-0.037059849058221045,0.0
0.8268934745801902,1.179221484111795,-0.16060192692761102,0.0
-1.6087867017302748,-6.932350909583487,-3.327201999299688,1.0
-4.238969179932668,16.628159920673397,-4.184106877105904,1.0
0.5346564925147183,-0.3316523438348915,0.3249380375407521,1.0
-3.80202337005013,16.882645155746733,13.395419304805396,1.0
1.4970200769151005,2.0467561765759306,-0.5707329410651236,1.0
-3.6339624468171716,-8.117099551356198,-1.7965081459912235,1.0
0.12964133494944216,0.13669131393040665,-0.18859776599843073,0.0
0.43286947185516644,0.4677252174594006,0.975402462484193,0.0
3.49657929777417,1.5646119219834347,3.111678731340108,1.0
0.055680256841381025,-0.4113109296802506,0.9195398319182756,0.0
0.1646148713263397,0.16484242320956288,1.094321865783961,1.0
0.623614920236646,0.26881408181483185,-1.2775554531998687,0.0
-4.7012077752599275,-4.422958905747426,-5.2163266426689585,1.0
0.3534029839282268,-1.91025439896531,7.033056760505328,1.0
15.121739363403188,2.3083030035425693,-9.941138736112517,1.0
-0.21025141214823,0.13816322911490417,-0.19858384880223393,0.0
-0.49574113594606944,0.36892650622823386,0.2847107128424254,0.0
-1.5646512856101966,12.807204481731297,12.867192340160422,1.0
0.5679119186955869,-1.254586101733269,1.2563804262104776,1.0
1.9334332925828501,1.2293409700964766,0.7207793815428779,1.0
-0.2699076932717668,-1.2863572044302078,0.22353322411671858,0.0
-0.4323317878015146,0.12054838522858922,-0.5860206871349021,0.0
-0.3456327254000344,0.17966858084483853,-0.36248149504894284,0.0
12.383052127102403,-1.8255338756855488,-0.357254804147114,1.0
-0.5003510634169039,-0.3315916964511277,0.9338261456660456,1.0
-0.23869383884933146,0.6418786037153459,0.12052033520465724,0.0
0.03500791187424432,0.5322804281682343,-0.4321385430280237,0.0
-0.3938595180786957,0.36603185536757493,0.5567978746689467,1.0
-6.687855126101625,-13.050779433526401,13.860677211318047,1.0
0.4835303200833794,0.5231325296050346,0.4371905440659452,0.0
2.0329868410190914,3.169164022175,9.241710590953822,1.0
1.0483013624426556,-0.5795692554698225,0.5804079300398332,0.0
0.8214880098662843,-1.1756347025713834,0.48584219914299814,0.0
10.14325811654546,-3.8885289342726836,12.970447070638642,1.0
-0.6019441526799831,0.44925388179863934,0.9132585955176866,0.0
0.33628415660882166,0.130666919560582,0.6165385293008736,0.0
-0.2661854955876351,-0.767476236293051,0.6503025580653548,0.0
-2.015660639510529,-0.1333688397141681,-0.5754175577586481,1.0
0.654618809871858,0.690767803978214,0.22595297710200446,0.0
-0.576600480751441,-0.3459084777480578,0.006542525236949881,0.0
-0.7953564408123941,-1.0085192832872993,0.8470691401771729,1.0
12.398007107021375,15.084024071315621,-8.037484599824886,1.0
-0.8090288365165416,0.03891852328054412,0.16553472383456624,0.0
0.27592563209123705,-0.5406167533045988,1.7555301489761022,0.0
0.6493414508670311,-0.7688005887078075,-1.4208116025020945,0.0
-0.19476028391630765,1.776662408397136,0.23411580994497722,1.0
0.8716043855835374,0.07891702797508646,-0.394114966607415,1.0
-11.602192351864373,-5.817900083764314,-7.151398312147376,1.0
-0.4648628093905167,-0.12539895390556932,-0.6860538888760909,0.0
0.30650279752468423,0.17703693102936305,0.45042657729562885,0.0
0.6882719327476184,0.2877753094010781,0.6882007984580992,0.0
2.15678359389278,-1.508044497755157,0.48796856572762554,1.0
-1.0229484953391625,0.5941502682485699,0.03718776273804034,0.0
-0.4532042462568208,0.3677679840062403,0.02544004225000434,0.0
0.44279613165756043,0.023442332739654417,0.46786785232369854,0.0
-0.554902009945742,-0.7481678120679831,-0.17369707948327923,0.0
12.479769528551843,26.660537676058365,-10.645276773155803,1.0
-0.7148518562936536,0.2722490569484685,-0.15923828430473844,1.0
-0.2877771715779453,-0.3600312672518275,0.26499974884843475,0.0
19.63341143369373,14.701674522471649,-6.497499925994681,1.0
-0.11882625075758337,0.10770643976243652,-0.2198578156310098,0.0
-0.4399921904186347,-0.004860532498662825,1.174105353051137,1.0
18.63692366198841,-2.90721219083671,6.494843701349973,1.0
0.18274342061272528,-0.38473226195522925,0.2519568133509122,0.0
-15.573347871235928,1.300708043547877,-2.1665757411804307,1.0
0.678453826318386,-0.8283810278504183,0.6648140621172527,1.0
-1.1458800743516109,0.5570727502526533,0.11614406046760614,1.0
0.12740768324365606,0.23141883732847335,0.13239537095527357,0.0
0.4973733577045657,-0.05898150936083679,0.2611632780692879,0.0
0.27292364584328677,0.8169184359499773,0.6639530805514858,0.0
-2.938139498646746,10.549960809348748,-9.0307137199276,1.0
19.59749808253543,12.47414107625951,-7.743559812596478,1.0
-0.04651391612386102,-0.025383427483282976,-0.6852606029650693,0.0
-12.94047057317016,4.109838985276923,-7.693378288398902,1.0
0.7273369176433078,-0.008849720583947548,0.9677418726930795,0.0
-0.9132920243205302,0.1088244687739434,0.02677159980592049,0.0
-0.6547454589668685,-0.08646668364790473,-0.3175745496828213,0.0
3.333853121791965,16.294270703293215,4.664599551518287,1.0
-2.966996697972576,1.1696899897462352,-1.6263494257805142,1.0
0.15818604256483118,-0.19813758921395777,-0.5671612945774676,0.0
1.1726057267915984,-0.44878580383649425,1.0298909856048717,1.0
-0.47158556211176444,-0.29362722941121944,-0.37153489091961106,0.0
0.18160238085928623,0.22335551105525214,-0.4728406166093184,0.0
-1.0666373097324922,-0.3566225105382325,0.534620017985985,1.0
0.9114679482121519,0.3101852264014789,-0.743946211953291,0.0
0.11876090840956952,-0.4821534227535768,0.6317091878379959,0.0
0.567065055250242,1.090465263668611,0.778505059628975,1.0
0.2162346333984718,-1.2373606562160284,0.8186284616313642,1.0
-0.12024348888997954,-0.4107765980435457,-0.3419578636014988,0.0
-0.20126961943309832,-0.5320318497896758,-0.25506841207458175,0.0
0.0759475115841203,0.23820179680831,-0.6294027997296845,0.0
0.32616345306075856,0.7422569469596687,0.11209126216245202,1.0
-0.5479109823406544,0.24608965746017342,-1.0304201925561811,0.0
-5.646333584627378,-5.049540813498817,-2.1696261111912527,1.0
-0.5009892492304127,1.4968158913374925,-0.08129738024744872,1.0
3.0585352966150587,-14.936367563259916,9.821477691366372,1.0
0.6911759036257258,0.2863323674850219,0.5325991060005931,0.0
0.14855994887707147,0.28848232417812186,-0.9321051832260419,0.0
-0.14665966583545553,-0.21677959260536045,0.38504036473228226,0.0
0.200554551291044,-0.1882144857718226,0.32033936525736795,1.0
-1.2633255110256856,-0.8972274726615387,0.845050973506343,1.0
0.04250849263569781,-0.49525825443372584,-0.2529079184803543,0.0
-0.2726082899950398,-0.15129068636576373,0.19684227346730054,0.0
1.2327928740762966,0.31283951095913975,0.9497322571574123,1.0
0.5316519585448991,1.5568800488493961,1.3045213806661107,1.0
-0.07627589600163115,0.6754188450382247,-0.09115948383279471,0.0
1.1775897806042976,-0.9843934593808518,-1.7096940607360027,1.0
1.7292713848046335,0.23071202024233836,-0.9490026515875617,1.0
0.6998762370829378,-0.6393720620712254,-2.034982731827153,1.0
2.135558298068576,-0.03730571996171308,0.36870302973875946,1.0
-14.403508124233394,12.551374526300794,-4.597540810932768,1.0
0.4319814497649198,1.762877022432954,-0.4304517558540873,1.0
-0.04253536327572575,0.6970980174478804,-0.1154990895915394,0.0
0.09417452921462273,0.4966007549123562,0.32326341864214003,0.0
-15.629576216959078,6.927990967242575,-6.471143194274878,1.0
-0.26600546983411355,0.1606309640397726,-1.5195887714916076,1.0
-5.016857627640795,-12.246101394904052,13.273816966156687,1.0
10.194440213317925,-13.830723185545226,1.7131799903412173,1.0
-0.686548132853048,1.042854035562494,0.08597383515280804,0.0
-0.689555116883863,-0.17486897082901892,0.11441526252824531,0.0
-0.14540817830382544,-0.34334719944472636,0.7085694265817848,0.0
0.9312230509579265,-0.033617788859842936,-0.15872805658022898,0.0
9.254903832646303,7.324561935892921,-2.8550354400228346,1.0
-4.687393911669641,2.7765112364651263,7.835545716071311,1.0
-12.616973568697343,6.601566796027095,1.2663176021550604,1.0
-0.06138689077499872,-0.3476548862292804,-0.05840596528069596,0.0
0.5580116714030018,-0.3405340035835589,-0.3983452164352268,0.0
-0.6169125302030151,0.009690100844264367,-0.5783491363900408,1.0
18.764203465409143,4.32631773286733,16.014153060494316,1.0
0.5908032389105792,0.7719825855081094,-0.16203961655904625,1.0
-1.2053737859842488,0.07980414605684714,0.5908073827681091,0.0
-0.703618412266162,0.6758084815868737,1.804430939113635,1.0
0.5680014938668914,1.071742731728201,0.4922574816656437,1.0
-5.566425216477193,9.570880134281431,23.792618224356772,1.0
0.5675056362114453,1.425532274882761,0.3491660489700127,1.0
-0.33687181858271337,1.837539269937038,-0.8664274193797695,1.0
0.5436732726484138,-0.1802339776267182,-0.36101935918248657,0.0
1.527540926806016,0.9673604219593201,-0.39499876084780416,1.0
-1.4110282435289643,-0.629884685148364,-0.6135908352656042,1.0
-0.11822417833824593,0.4002663857682949,0.04875301541293105,1.0
-0.08145031280461966,-0.2675719084438909,-0.6099126175530365,0.0
-0.09543403048626543,0.12634198646403336,-0.5299353906770963,0.0
1.2245335744107435,1.993809649858264,-0.1548346764705294,1.0
0.09428458027709603,0.019796391123864037,0.21625191766589957,1.0
-1.0213518191769655,-0.12778889175551444,-0.10386140743647977,0.0
-5.70071836598316,16.05426141013457,5.104239362421449,1.0
0.021790002531016,-0.0036025048005198894,-0.9249699687635474,0.0
-0.15121926177344658,0.17925368959388022,1.6686464602208777,1.0
1.5656019238958432,0.1654305266106204,0.07433049929527533,1.0
1.47597406941689,0.5585690003422443,0.7450701729307828,1.0
0.11896620913107639,0.3008880221724466,0.8902723426563537,0.0
-0.07630723856799448,-0.11339926872467533,-0.41720188533313773,0.0
-0.17534003940422077,0.25707857224620506,0.23757843745344265,0.0
11.638084893937641,-3.176311132935891,-6.223289137600085,1.0
-0.22479221069825575,0.14804433887982285,0.4415699140924282,0.0
1.280696012731219,-0.582020057625546,1.0213609825216152,0.0
6.400278474213894,4.090503350447596,-12.445804259855745,1.0
-2.136584227095422,-2.9529278327747246,5.339873590162455,1.0
0.7214838471334256,-0.46595333486059304,-2.1463921828442722,1.0
-5.39022641544944,1.822121624397426,16.024211158449408,1.0
-4.6721838710094445,15.011704391668435,-5.7844206283651465,1.0
-12.573719042150042,-24.707155977295105,-0.9341550132564109,1.0
-0.20006856292595593,0.5168681977842784,-0.6914304018686869,0.0
0.34704347424119275,0.024563089778661847,-0.43140208399041485,0.0
-0.40880283288167324,0.8412078576435081,-0.2399491173285855,1.0
23.674361790348904,4.095966084037659,14.735681890080269,1.0
-0.15417282460909046,0.9647892775983296,-0.6779527812043106,0.0
-2.0183214609697147,14.093267044716631,7.536644475410705,1.0
1.0322267381887755,-0.5602850107878656,0.3304112981308275,0.0
-0.11387686692635857,-0.2658302008472009,-0.3308942072352449,0.0
-0.9066890555772213,0.3327828734810974,-0.5439760693578207,0.0
0.20915959825471755,0.3825475856314858,-0.5791303227258383,0.0
-8.599179028447704,-0.7100080394509505,-3.020482945822549,1.0
0.12512945216925134,-0.6054185064655876,-0.28477544526402276,0.0
-0.7476108721805136,-0.4305379384296533,-0.99312248824533,1.0
-0.13773493120807215,-0.5431231544483005,-0.04587563024810379,0.0
-3.6957508065596274,15.382166254254981,6.898362076332473,1.0
-0.4515039666712358,0.5900242395827001,0.31701254275069274,0.0
-13.83001353726845,8.756096499141568,3.1353685297480984,1.0
0.08681051105752823,0.6234008945248687,-0.38094091527407103,0.0
-1.4463437257934233,-9.37725654487394,-7.009594513436936,1.0
1.1832000068252726,1.234193282716589,1.0049449625326061,1.0
-0.21333493052999794,-0.5420934318497437,0.14860142251498107,1.0
0.1762003763831702,-0.33745888610170893,-0.0792095752537635,0.0
-17.75657340812988,2.9239292014820255,-12.86531814261708,1.0
0.04019922702816196,0.26562104503636913,-0.12093504182417984,0.0
0.3344459207687772,0.4488257475857684,0.30422023771956985,0.0
-0.36150137513562375,-0.20883288402102118,0.5977813861846456,0.0
0.11259876027770868,0.09982118656469056,0.6519012904595474,0.0
-5.886783375449015,1.7601406555804315,-6.544751352492236,1.0
-0.289980642739763,-0.8446331679061192,3.1244342492360704,1.0
2.4268738290986605,-9.373406783361588,-10.594156026446775,1.0
-1.1698354385277148,-0.08925913338242533,0.18192173739286177,0.0
-1.5760434785552553,0.9743686198579978,-0.0014118754648555455,1.0
0.4540412362686968,-0.4698267004177552,0.5394111587598076,0.0
-1.1028471897968757,-0.2640921247071237,-0.7917739077929686,1.0
-0.7154609767241383,-0.6058373886374736,-0.18537064028955957,0.0
0.13373616179372433,0.08578897721936048,0.05804871827866845,0.0
-0.2867020421685171,-0.04507849536469053,0.5946312255626394,1.0
-0.23392747979840953,0.6841045731249737,0.5752031227400224,0.0
0.6437266878978881,-0.1755318178019338,-0.048699560121661344,0.0
0.6467228016220933,-0.37482868782579953,-0.390371290850485,0.0
0.25659651891826585,0.2551293723225104,0.037692882892956,0.0
0.12871991292451723,-0.5089883419833096,0.5200711467618577,0.0
-0.6558096230880122,-0.9345856405756079,0.6823042974776677,1.0
-0.7685404204306107,-0.6288071987812531,1.5334675811048448,1.0
0.17337341549237514,-0.09945834074239673,-0.06227262563565577,0.0
9.293420585682004,-7.80109258472259,-5.679680264105423,1.0
14.558584181189802,-12.711601241439194,3.887964032901636,1.0
1.0753704232825734,0.49165579418359545,0.20479333554943255,1.0
0.39192025587908885,0.28257065289604494,-0.4705033653688251,0.0
-0.7555411465890355,0.465928498495344,-0.7729036153379117,0.0
-0.31671766135036017,0.1532435892878461,-0.5526616545614019,0.0
0.4970555594911959,-0.7585658899672865,0.07725412457888177,0.0
0.09812518765576807,0.32632014659435465,0.48919201717560123,0.0
-0.8619316357272484,-0.472550731727911,-1.1669865292911956,1.0
-1.558836824630849,-9.228476478313226,-16.57502696448545,1.0
-0.23612175788063364,-0.36525008779609647,0.4042397062118588,0.0
-0.8583971270144307,0.1987561455605489,0.021994015659337673,0.0
0.33997848457948127,-2.7406016096195915,-0.44537788065580464,1.0
4.238057588994382,6.157308486948496,11.333619239789801,1.0
-0.9859423652175761,0.3058008260618647,-0.7981762039980923,0.0
-1.0300898630223243,0.7078190470584789,1.1470871925278783,1.0
-0.7464890930235842,-0.24800402300608962,-0.029604392803271713,0.0
0.5491605398952696,0.2625306060627126,0.5537418647139266,0.0
-5.581849725535585,-0.7993597792245213,1.4903569431979835,1.0
0.8134542457818146,-0.15760418958219727,-0.060703190176172844,0.0
-2.5331895331986756,-15.016836589664775,5.254888773143329,1.0
0.30173785787536206,0.36935454665272494,0.7528308506933524,0.0
0.30222164913651045,0.27180570507049207,-1.2958018079185254,0.0
0.29260979640334966,0.5196082142355192,-0.29536714967727745,0.0
5.201078145187317,-4.302023243454361,-8.532873156697164,1.0
4.264594869197179,-9.325472017944492,-8.06319694498364,1.0
-12.483422593167113,17.300974658826355,-7.470775928780403,1.0
-0.3790367312731029,0.5718700153673224,-0.29063189796309,0.0
-11.953834658853673,-5.990279975617513,0.05839274421014473,1.0
-0.21079661061412863,-0.6895604505277116,-0.006076913676575784,0.0
-1.0318618982452143,-5.4926500802579845,8.951450575136985,1.0
0.5285092715618915,0.5344087186097525,-0.6188654406448529,1.0
4.016000213852286,0.3589711105686308,-8.297418930670146,1.0
-0.22770784922190143,0.2479910425790834,0.6472249494924044,0.0
-0.646724868028553,0.6599073519913086,-0.5957087069493053,0.0
-0.6407401843199338,-0.6751756399174954,-0.19831244096225348,0.0
-15.879035124791788,12.30403877654945,-14.130621780174703,1.0
-0.17061581265798811,0.07112859827918154,-0.2323760547347148,0.0
0.7929406739275643,-0.09457079448306477,-0.02261009505754259,0.0
0.2237745659011391,-0.5329261684887262,0.37445164983699863,0.0
-3.725296336198418,-4.776002360096446,-1.9372568158862344,1.0
-0.22652964808685164,0.8338102866024182,0.4984391142415969,0.0
0.6724126169428032,-0.1450900848332446,-0.18773710351892436,0.0
-0.20255335489819834,0.1986016054254416,-0.8003866816816273,0.0
14.525669005377216,-15.232801717042381,-6.38837543886778,1.0
-0.01520126321670658,1.7110772540098886,-0.7367361644511048,1.0
-0.10351975809854747,-0.7236743603345144,-0.11196150459633404,0.0
4.172092195739557,10.120452942563665,8.247910576383395,1.0
-1.023762699794396,0.4108664005522111,0.24186467835731207,0.0
-4.287426856498676,8.339160895781205,-10.282618892590044,1.0
-0.3864881472417837,0.49760367142779055,-0.5586132372252183,1.0
-0.15735128418956248,-1.1296704610108455,0.2337818770292473,0.0
-0.42119682168182987,-10.729066605635719,1.4938778489741353,1.0
0.07393921808948958,0.1379864338926228,1.0830606969968282,0.0
1.0499895252493052,1.1333753225982985,-0.4017379494664746,1.0
0.14461407970112908,-0.3894120509688428,-0.06357552107536438,0.0
9.003487737719047,5.383333540347213,-1.638073524361521,1.0
0.4007422373994791,-0.4217060178257953,-0.7239185427544705,0.0
-14.320185063380716,-8.262170912085264,-13.006860127077038,1.0
-11.557552541026862,4.44223718609624,-10.799197015976407,1.0
20.59150228591868,14.385754934072615,7.2080162466077375,1.0
5.99108099388847,-9.400519922810087,-4.446245377376479,1.0
6.184870185447851,-15.57942886008982,-3.6737888857244676,1.0
6.453826870610211,13.92734057532454,15.766324850535414,1.0
-9.506296873445988,35.27415965414835,-15.837257363564204,1.0
-0.6787969322792274,1.3948615393873334,0.7492678631319433,1.0
2.0622243858040683,4.778486431957585,-0.6037311856821296,1.0
1.2373337008885428,-1.1160661161619883,-2.1323150887284954,1.0
-4.776548066520519,-16.321106919631877,-11.914975828286,1.0
-1.095383958089396,0.03269818005917352,0.6791086113720125,0.0
-0.8080480932160556,-0.31852257111441445,0.6734770286763055,1.0
-0.4582230424611699,-0.760813125367186,0.6356438715214598,0.0
-0.3060579469097945,-0.0006222007873897749,0.12633947970986326,0.0
0.1032801848608693,0.7007496292902848,-0.7329329563819664,0.0
1.5104624714096373,0.3484661220531108,-0.8215282717908611,0.0
-0.18233705871089478,0.9938739707545384,0.22986891040901938,1.0
-0.31858369814396664,0.03181731502924346,0.7297964776411866,0.0
-0.642758479553169,-0.4489620439392023,-0.29357913308727357,1.0
-0.24280728379042502,0.1482692577246898,-0.033370603514074774,0.0
15.866978183459759,13.396805385143978,-0.27636916156631514,1.0
1.168880092708902,9.481977731099544,0.7554568618569699,1.0
0.2602883133534141,0.6622104039145162,0.5768222251640841,0.0
-0.5356024702537086,0.4810869614934746,-0.24387320068853793,0.0
0.2960023396163764,0.002019965265657374,0.09015739660038181,0.0
1.3008845592588572,-0.022210869818905663,0.4877481358493105,1.0
-0.21419002470994136,-0.019901988654136043,-0.6607664157503896,0.0
1.1310813604112786,0.15427569069640892,-0.5119714729604365,1.0
-5.484201520433136,-8.556273771972444,15.100669286330493,1.0
-0.7322600137069785,-16.090975842530437,-14.779568693076158,1.0
2.94961159662333,3.125071935849011,9.90888436164587,1.0
-0.7047132628524791,-0.45638595625374945,0.7675139990671058,1.0
0.05571728711687794,-0.28259520129852445,1.1304319562422243,1.0
7.886208814072798,4.5594269493922255,-2.1953545785892032,1.0
-5.379466520434101,-8.489988696803113,-5.388075963501678,1.0
-0.17802656099584954,0.6174939009293012,0.17495386056994375,1.0
-0.500878265699834,0.3878631966215812,0.09654140417612217,0.0
1.4298868452891964,-1.874147937400505,-1.0996542205637612,1.0
0.3408645760276996,0.7383395302985416,0.004578002100839056,0.0
-0.42900138502581703,-0.03445849125359365,1.8557562942356405,1.0
0.3399693757877845,1.3346960486071404,-0.9029838252112041,0.0
0.33398742873249776,0.32469088294558623,-0.1953809856131324,1.0
-0.4355339331815543,0.6000104817593004,0.1742107797431205,0.0
0.31127992807668375,0.6271860993893535,-0.2051110868457003,0.0
4.333961216471658,11.566733795105414,-12.081781063567789,1.0
-0.2045711530803167,-0.44446101786741515,-0.4336254810113442,0.0
0.4020316503567612,0.7282722343448446,-1.2903505520588234,1.0
-0.4617364435784772,0.06634274549264745,0.5393115197091498,0.0
0.6425966571688096,0.002664081707247417,-2.1157732492981376,1.0
-0.6032817220333001,-0.3103228610378483,-0.3037192661469096,0.0
-1.0864489480439314,-0.38293983514674745,-0.26096569211288073,1.0
2.9733889475349033,-4.571549480115133,25.00958611023417,1.0
-0.6533739817116146,-0.37744554739040437,-0.460345770420575,0.0
-7.657886821892191,0.730110217960923,14.731215775490945,1.0
-0.5938379735435039,-3.4404818849341376,-2.2044621972411225,1.0
-1.0673044973308703,-1.249475052786488,-0.2018407035432362,1.0
-0.7390094774792813,0.3158961433768497,0.12845487447635667,0.0
-6.244049110758524,-5.796369975686004,-4.052467409180641,1.0
0.0024344042338941122,-0.4519532832787796,-0.8517717858213595,0.0
5.024141265318195,5.1784033322257255,-6.476219223030882,1.0
-0.6492648866795365,-0.03119285329206042,0.6394245732521496,0.0
-0.3616627825252783,-0.21282884694292767,0.4532692865895153,0.0
-0.03831344635874961,-0.10576599736621331,-0.5338433091182421,0.0
-1.0111547817183977,0.21991216166917352,-0.6230328008516645,0.0
-0.8136930435326141,-0.21121266644023345,-0.6386096581288444,0.0
0.1284832127207268,0.4739606167344181,-0.004196659133761196,0.0
0.21800636830881404,0.12222216456495125,0.42263774668028087,0.0
0.33046719419422954,-0.9627467657941993,0.07403772864351016,0.0
-0.14942462084451943,0.1384190873878965,0.31382283058922184,0.0
0.20135677684868195,0.4623826808581638,-0.17427041149429368,0.0
0.18734803437629896,-0.12324040183247022,0.148017316227903,0.0
0.474468817201552,0.29864106516186584,-0.6068218231962115,0.0
-0.10749315343011857,0.038800440338742644,0.8640002051174294,0.0
-0.18017586756247955,0.6937324870825153,-0.6404839734704864,1.0
1.026294992226242,1.1996161719480787,1.1172772468750438,1.0
-9.930442608660776,4.559449077124817,13.887533246875972,1.0
-0.18174987663106995,-0.20794362127301536,-0.4964055412654043,0.0
-0.47681145310358763,0.3110924480905549,0.24773692656523433,1.0
-0.2346888540561325,0.7498972823623544,-0.07597881755441184,0.0
-0.7088556819361288,0.8490353752286819,-0.7723569632761341,0.0
0.029023154404461342,0.5331436955123158,-1.2432772777909606,1.0
0.9692921317983559,-0.7485811346770272,0.31001138007399803,0.0
-0.8167455164727397,0.6198793128675443,0.21119632480572648,0.0
0.27524778011368994,0.48102971981002884,-0.31188499992471563,0.0
1.8799518395738717,0.09665590051470366,0.4076389296584633,1.0
-0.8585432104471428,0.2915110577861384,-0.2250331974885427,1.0
0.23294660452296018,-0.9897200297141705,-0.37410026752812064,1.0
-0.0370834558437991,-0.44643937092375346,1.195018701985524,1.0
0.6834722484826143,-0.3235484898506579,0.6361672050644076,0.0
-0.39470517724576953,-0.18230726871734104,1.2722800280275774,1.0
-0.3211671199713836,0.009365538618663759,0.5287417671160619,1.0
-2.0743279409829665,-1.30722244803982,-1.3563270321143122,1.0
2.8773765672971336,5.3377826547831635,17.354687681855168,1.0
-1.0024707721479769,-0.5336104197870767,0.3776805025878827,0.0
-0.024554342922339767,-0.6059498316753575,0.5946619164748214,0.0
0.6464324725397231,-0.12177917470892467,0.9620633867551968,1.0
-0.38317824528086364,-0.5999317786241192,0.01966059123056021,1.0
-13.075374307002669,3.8775101023611134,12.450182785472597,1.0
0.6190348236671502,0.9586838692287107,0.27555827004487904,0.0
-4.708047238960588,-4.544417017945665,-8.553837509018994,1.0
0.5207278951231392,-0.8022524287645244,-0.43694353810452247,0.0
0.028826868619646548,0.07151791499950634,-0.43729375522180713,0.0
-13.210496070619403,8.206495347775105,-10.97536689207483,1.0
0.4579314330469996,-0.5950504488863497,0.9309960861907002,0.0
-0.07176731639782698,-0.040560733442964826,-0.29636595863321896,0.0
0.049720879135012636,0.8840367266834215,0.12177406480923257,0.0
1.4502475926799385,0.8989293698141553,-1.5057251632288224,1.0
-0.17323081680293936,0.22679692770203752,0.14347587226185884,0.0
-0.5236661184748669,0.5333041960793976,0.2832713512986953,1.0
-0.9106096968849188,-5.761250962540344,-8.412235633964473,1.0
-0.0835556197630149,-0.7996663445621127,-0.22379947407782944,0.0
0.022009406802339343,0.8347623998904872,-0.6551557624663299,0.0
-0.04352168062902823,-0.22103686566578784,0.09210670954281326,0.0
1.5299550034222205,-2.4998750346299086,-2.7803396754441803,1.0
-1.0184863677547673,-0.060976320584383445,0.43053282006111243,0.0
6.71342135760087,6.902968310868887,-4.87771095388813,1.0
0.3382371113200892,-0.12333620490365806,-0.44317763779936925,0.0
0.06200669163113611,-0.3248754996723512,-0.4783869069049631,0.0
-0.5636832692990185,-0.08749494596732361,0.010066552758400984,0.0
0.271769085789111,1.104094467380384,0.10852973813767067,0.0
1.314586357542044,0.5954251570047635,-0.19745971617356975,1.0
0.3196428058155538,-0.05669740314725834,1.19537299455063,0.0
0.3303584352527651,0.7094361692737028,0.14502540500199684,0.0
-0.04850742337090759,0.022981184326910604,-0.6466604452105766,0.0
-0.3143790852720083,0.6276922803306991,-0.32863243802852316,0.0
0.5524635693113044,0.15765799447555984,-0.5768806429097583,0.0
-1.1425578502798543,-0.15493327274232135,-1.0061789268355097,0.0
-0.09072570230323246,0.06287449009504208,-1.4202726026747556,1.0
0.026652275582121854,0.5192265928765035,-0.7748947221002862,1.0
-7.3350814688374,2.8094185941249545,10.563200046549797,1.0
12.191688537476741,3.1112916317407753,-20.00139737777054,1.0
-0.6181696016656635,-0.03768537729713004,-0.16455786765476635,0.0
-0.42951304236306137,0.030282983691890655,0.871321404312399,0.0
-0.278321758501753,-0.06907666680762004,0.21834459413601048,0.0
-0.5588274082102868,0.36898150238897354,-0.7064866370182046,0.0
3.220809953276529,7.709622108644468,-6.146771174499289,1.0
1.3428006093166553,0.5715337181151428,0.6056847817107975,0.0
-0.08270191176716392,-0.11005133508170051,-0.27613958471098937,0.0
-2.1048887586507505,-9.51261294546655,1.3579006827909603,1.0
-0.004965120343537585,0.052051721097096534,0.6559120148052813,0.0
-0.567054503544906,-0.18064438082355447,0.28930693898916837,0.0
4.576259964855407,0.7401970766773563,-1.6455615801446177,1.0
-0.7348823881241275,0.47290334393331124,-0.1810409069140271,0.0
0.37969197302049534,-0.2769969198804426,-0.22274216939596436,0.0
-0.28342098872047017,0.36946451330876684,-0.5508641275419691,0.0
0.6456337793043762,-1.54324398600851,0.7705057280350512,1.0
-0.6047600626009674,0.20444418576146092,-0.4793592292171447,0.0
10.906673747575708,9.28358149826282,-5.812055524377742,1.0
19.609313976538246,-9.114705721120956,11.174051554214127,1.0
1.073237174975943,0.5829955433065083,-0.6576279794694042,1.0
0.5775012462783033,0.88398741733935,-1.043305018097252,1.0
-0.0459902716217172,0.6562430010336628,-0.2593800441144478,1.0
0.26470598894087316,0.49315832597906684,-0.1735406969352167,0.0
-0.17651202258018237,0.36997507932234397,-0.0343712556556354,1.0
0.004938408008743683,-1.1373935783530258,0.2437765064227451,0.0
-0.5621800855508688,0.7762745652210389,-0.41383998371686914,1.0
1.7205939810160815,1.773102289542861,0.08257373867409935,1.0
-12.475542112547028,-1.47874673987502,6.751521601119964,1.0
-8.458084199326464,31.324211953656615,13.627122699531771,1.0
12.184186548815783,11.759087104671739,-10.509269778504969,1.0
-1.5277444166673841,-0.6744480759713003,0.13861847374240507,1.0
0.3629333165228829,-0.13562616649665954,-0.3556946171459453,0.0
1.0118832830242304,0.5023619668359286,-0.7865429137213462,0.0
-12.955812619510137,0.5323458712811903,-7.446884526609992,1.0
-0.46992226884123195,-0.19077172057891043,-0.1784786843985894,0.0
1.338836844701636,1.5089143879248954,1.4360957486408137,1.0
0.5076563314786847,0.1925549134707225,-0.2828943348998095,0.0
-17.196235098984527,8.348438461865788,26.283887481397787,1.0
-0.8789404984323116,-0.8783904488074056,0.25685225579301757,1.0
-0.3146211342263429,-0.5996583496795704,0.6417773264266378,1.0
-0.5416769597341236,0.16764623757343372,-0.0707854550665242,0.0
-0.0822049615572827,0.14561341264205974,0.07823014893252325,0.0
8.757231566518103,-9.523359671377419,1.6238766845133998,1.0
-4.795100041911261,-6.3147927201321,-12.766783502957178,1.0
-0.35982000703492517,-0.18940524605633216,0.1250339344435147,0.0
0.05594807202506251,2.769617317957378,7.807008795366011,1.0
-0.3581066271463707,-3.482555958392721,-0.8777573926398895,1.0
0.3159734764485791,-0.5033029779618743,0.5334537422492692,0.0
-0.6511632702833584,-0.6299138173504156,-0.14579075938153213,0.0
0.7040908809989408,-0.033272600050553665,-0.3619012352414409,0.0
0.003057115440032731,-0.5754452706350471,0.17155689598791637,0.0
0.8451724980495627,0.1125440716582083,1.1199608849246103,0.0
-10.850587747631925,-1.7753434204363825,-1.0713011205733975,1.0
0.17881166961923256,-1.3372240419687293,-0.46580386228761106,0.0
0.08884882187651827,0.03954304154660496,0.600877792295733,0.0
0.1117233284666073,-0.12181213105712309,0.01562411075899463,0.0
-0.03693452495740616,-0.17889045531657657,-0.10365414059259355,0.0
5.4221747522791865,6.364496891796097,5.211885907540449,1.0
0.031067905407314363,0.2614422836775331,-0.26604788262522533,0.0
-0.31705322210072395,-0.2983867559224027,-0.18841876848356798,0.0
7.697006964766821,-23.22416890114154,14.42366569400087,1.0
-2.3356837663037644,-0.09904092638088635,0.799739412945897,1.0
-1.0250803662846384,-0.36358428328798725,-0.19763573646079366,1.0
0.05751507300026603,1.6942526548204828,-1.0675768926981257,1.0
16.76016880781774,-6.285721195134562,7.530272440427219,1.0
-10.45092686200337,-3.428894682645465,-19.39927518487764,1.0
-0.6165757969719823,-0.571579863009803,-0.2767932363229704,0.0
0.13631558885602985,7.1777389602023565,-7.363304171592031,1.0
0.28235895585973914,-0.544653371460936,-0.49499783622737814,0.0
0.9942334482759682,-0.004456970837157053,-0.3171418033240173,1.0
-0.41873884677716944,1.6362345438018606,-0.5166108854281911,1.0
-1.200046401522786,-0.37560175457037964,-0.726522119627175,0.0
-24.3212677168744,-7.899579284096853,7.738147766018303,1.0
-6.651862723456777,-1.0005854717180658,-9.349125756552574,1.0
-0.15506892842615733,-0.21080706532868082,0.0357421009833928,0.0
-18.966652153343407,-1.9038988190642,11.07831191555898,1.0
-0.5199177158810488,0.6525552691023635,-0.19590769522248053,0.0
-0.9567954662700333,-0.3607799556214792,-0.034626964463567125,0.0
0.3652066823673608,-0.3579834704911982,-0.7786853167535877,0.0
8.937955904396425,7.63639573761427,-1.4814236247645711,1.0
-0.26784053058447393,0.9154909188520289,0.5086724801666354,0.0
-0.13644551058853835,0.16289940450615265,-0.6943008446479988,0.0
0.03440132111868398,0.07013990117226468,-0.2816822095136937,0.0
1.4263694249819128,2.6897073707712282,0.6850462037834146,1.0
0.6481056908158122,0.22160972925971673,0.016985944745615638,0.0
1.118067839349198,0.8862246187299682,-1.602153696587235,1.0
-0.5228664035545131,-0.10939521550396579,0.5519168070473578,1.0
0.15283954022441745,-0.03301051508399357,-0.17240056584559402,0.0
-22.13849472887178,1.2733048979261907,4.327421316060299,1.0
0.3275871835042882,-0.5089401572571851,-0.9389470284759496,0.0
-0.39450698343932056,-0.017699050729500513,0.5344614424400721,0.0
-1.8338257086514065,0.10873243014085739,0.5605726570077498,1.0
5.4016158172259505,2.6026648025893486,-6.7108775696395195,1.0
-0.6687490989233014,0.17435364925094737,-0.019786268796221307,1.0
-0.8059461816370157,-0.7942542960515597,-4.540453127215128,1.0
-0.42282438850007714,0.8296126281364978,-0.6993311556313295,1.0
-0.8516912317975045,0.021667284255473547,-0.8370661952766254,0.0
0.37747829540732447,0.6923315159176153,-0.13171940444938196,1.0
-6.932296449668746,-9.28332133383716,2.855333143591899,1.0
-1.9604990680654728,0.18409582499411745,-1.6658697079398,1.0
0.7101383734775537,0.17235202782893824,-0.5746462044184717,0.0
0.1637463030831268,-0.027297249833803074,0.328749836044961,0.0
0.23247708915816395,0.3885836762439858,-0.8111100086975105,0.0
0.5217136077798229,1.3978355285765947,0.6422014030502502,0.0
-1.1574480445402162,-1.8420260917108633,1.7884179321479732,1.0
0.2588967740603076,0.22504604230699093,0.3092776040187831,0.0
0.2634955104817442,0.5763064816516836,1.060207658911658,1.0
0.5232540892920856,-0.5262737714254895,-0.8241249433057057,1.0
-9.378149585969965,-11.319209918805907,7.988903335778346,1.0
0.13876703152632688,0.4204382784053954,-0.6372237827348873,0.0
8.302257054820984,-16.583448472214812,-7.835372137878897,1.0
2.340536797815145,1.4288966062446335,0.8886581143272805,1.0
1.9200712502235162,2.4326132814245205,-0.72386020779774,1.0
-16.906406680857035,7.753768543376887,-4.507428362601502,1.0
-0.1817491235342683,-0.2541481447525498,-0.2785900734262258,0.0
0.04871945911823037,-6.915677527238654,-7.225644120803864,1.0
-0.6544901037429052,0.799765587667371,-0.6743651666510035,1.0
2.021099877387223,0.347003630174296,0.4438574475038529,1.0
0.21993511430447873,-0.6691129654975517,-0.8387711054802222,0.0
-0.44477236378162527,-0.038104641835092004,0.10994881750525619,0.0
0.6632768893338014,0.3518819881947543,-0.08171419984169087,0.0
0.015632122352552475,-0.5281062643922044,0.547834589934373,0.0
-2.229407301797549,-3.1358472956136527,3.565466857048041,1.0
0.03504552888444632,-1.9072686311324365,0.31037679021899195,1.0
-0.5997946627328091,0.31094403577542074,-0.9679059580004875,0.0
-0.053399986113131494,0.09060770613399802,-0.48080542320092823,1.0
0.013121337400316246,0.40052963575592937,-0.362162618618015,0.0
-0.41072149329802726,-0.23584557508357856,0.9549001923326386,1.0
-1.905683454128906,-12.38563185518322,3.7269416911594218,1.0
-0.9369306584977181,0.382296732018144,-0.8385770818516165,1.0
0.5810180326503772,1.351938508835115,-0.3601152210003493,1.0
-0.732164039612791,0.6785798934802404,-0.616134407840874,1.0
1.4492058088533775,0.8582513808668909,0.28881176362208894,1.0
-0.5072537295433174,-0.6301980169680054,0.5072822517441828,0.0
9.43419476962999,-13.563790977699925,16.085954042101,1.0
-0.14473614018245057,0.0158568425558852,-1.0728528060958393,0.0
-0.3943584178253669,0.7072452137853297,-0.4524768027302405,0.0
0.5566689560865435,-0.8668106461912104,-0.5853140423308227,0.0
-0.26406635979601295,0.11135897028158856,0.49087523618707196,0.0
0.2312295666251723,0.6105259592248066,0.3935759716174283,0.0
-0.9763641769515062,-10.766583480461447,1.6598859350943906,1.0
4.877342521545196,-4.857965609040017,-10.015030606285416,1.0
3.604166598494796,3.0788179695650824,6.697833166428514,1.0
-0.25662758985023604,0.3248618003562286,-0.6437325804162929,0.0
-0.9636678866197723,0.2710878277277941,0.14858853329151078,0.0
0.3909235684342918,-0.34705035670783196,-0.8327023286326459,1.0
0.04066118279172563,0.10222182585887321,0.33367961457310374,0.0
1.8075533043519298,-0.07061390764045382,-1.5076713624625873,1.0
-0.17378609714220042,0.8796625300797818,0.1332075326401435,0.0
-0.10896777281166556,1.033207422924597,0.7809442721031177,1.0
-0.026480941785509804,0.18714881063627378,0.34024310013294895,0.0
15.910477454513979,-9.510172181914852,4.042545983807397,1.0
-0.7497762610037868,0.5638122308684003,-0.4223237181530255,1.0
0.6126913885435612,-0.19032195735685953,-0.5788696786467774,0.0
0.812687241700792,-0.48818494175003796,0.02927822354866711,0.0
1.0067587334354342,-7.917397460357626,0.02534097020962016,1.0
-0.4053865606842074,0.9429248473307063,-0.3229047634013711,0.0
2.5977650197512854,-5.871700983647762,-2.93433433177214,1.0
3.047967919891918,-0.9183380056170974,8.817340496850273,1.0
0.5093839303295792,0.6807910816922519,-0.517528753889733,0.0
0.7703240143572179,-1.1655044143709916,0.08583281047484828,0.0
0.5335349134915309,-0.4280404140928078,0.3051619924206472,0.0
0.8745762246963956,-1.1527223119259904,0.28549733401154564,1.0
-5.873091835436831,4.182882449257109,-13.239492846814773,1.0
0.022747708345690083,-1.3947685572754864,1.1178402806388505,1.0
-9.123060704266795,10.119539562666723,-6.383596665064082,1.0
1.4123161755633147,0.9505439437855577,-0.5427402617583434,0.0
-0.0867272727414575,-0.09942806308159427,0.4891458926934998,1.0
-8.84394401583253,-5.128585818661849,-4.57659847335572,1.0
-0.8193720067000673,0.2988073421529188,1.7110648032769344,1.0
-0.9790440513957624,-1.240011380565243,1.1069491673224583,1.0
0.3288403849159228,-0.0532677311669645,0.25401635756508545,0.0
-0.005978927473110991,-0.9173619737675566,-0.15885447596168287,0.0
0.21348692004361447,0.06927369713418483,0.3084642123025181,0.0
12.339658799061485,2.3853916364009238,-3.0171117536833734,1.0
4.292481923256029,-0.9429664102660024,-5.472135632895725,1.0
0.1626921316996073,-0.3269529714757374,-0.8638665464578003,1.0
-1.7986264048316292,0.06416970016129034,0.2203071652200997,1.0
-1.4016676426659602,0.340925832469849,-1.0715958834694026,1.0
-9.534671533480285,-4.132730272529673,-4.2424029446717055,1.0
0.5981232775652261,0.1379456273718525,0.49707840994487495,0.0
0.10064066990527434,0.13325241302365934,0.3893326419177978,0.0
-0.17152074422379093,-3.4315578572489454,-5.480205429837495,1.0
1.533987111216585,0.8912149182322037,-0.4520776748913099,1.0
-0.03519882493091821,0.6982895790553785,-0.3151849595575343,0.0
-0.019996880643758232,0.03139724576115847,0.2018590366617323,0.0
0.38003898225546445,1.080972179113613,-0.3188553039878636,1.0
0.24145988946312183,-0.5489892210744404,-0.1568341993744181,0.0
0.14853117423699763,0.10648914824498751,0.10946743989563074,0.0
-1.6909207869460958,0.4011765637949618,-0.7366002086036594,1.0
-0.24491204795747257,2.8467645112415148,0.43797941697605697,1.0
0.9297077514661247,1.313235453401004,-0.08830014559204724,1.0
-0.9501147947335293,0.15288820042979245,-0.43193154986794924,0.0
-0.5372266870539786,-0.3388318245817347,-0.3390309197998273,0.0
-1.2072767769202815,0.8294476532626075,-1.3334207704405143,1.0
-15.392692960839343,-8.807347185465952,3.4732505623180723,1.0
-1.1443765927107272,-0.6908999084112701,-0.5941775177899831,1.0
-1.25329698941914,-1.5475990045785977,-0.9474782982776665,0.0
-10.305360049944834,-1.00403127352438,16.995255204004465,1.0
-0.6805604589145583,0.35236145497664756,1.084571456421137,1.0
1.2535274437113462,-0.45785592050991963,-0.5650633891503243,0.0
15.062075914185213,-4.010209101670273,5.322103108977148,1.0
0.9939440892553972,1.5555646166266859,-0.024668771092537976,1.0
1.3714354693224,10.563225607870484,-13.425731647110045,1.0
0.038686744244977575,0.08498879184125979,-0.19447769927141628,0.0
-0.4001581017676553,-0.08809712495800169,-0.43935830835787787,1.0
-0.9648797810933757,-0.27158090767469856,-1.5861348761488623,1.0
-0.318585626899093,0.04699108327624842,-0.12958825937787619,0.0
0.5375037176537787,-0.9410778447087598,0.6027559595683223,1.0
0.2569225922878121,0.5859537462576846,-0.30732817737224666,0.0
0.17548330867892029,0.1523672921201309,-0.07081600076170415,0.0
-0.14706319529187467,-0.691892650072719,-0.4134533324206768,1.0
-0.17286539391580513,-0.03851267848915399,0.009108076862803204,1.0
-0.037823600120758125,-0.2411273255049285,0.1305852435645671,0.0
18.87882852554076,6.982436930922885,2.9325607743908715,1.0
-0.8526621704010521,0.2863287467068343,-0.21793959734020293,0.0
-0.20325160735265885,13.288448559585683,18.31777529786527,1.0
0.020079714002772715,-1.1103061130553409,-0.23461782289810518,1.0
-2.991490390944864,24.216699409375163,-1.0066563685094727,1.0
-0.06608100074279863,0.8071984927372433,-0.5912991443522346,0.0
2.3337733182892832,2.4729240468775995,0.046382161391432815,1.0
-1.824528081946223,0.26725435299907613,-0.6947204566667166,1.0
-6.927926135626416,-0.02271819322464756,-9.754959633031877,1.0
-11.519758574051743,13.016476623271583,-20.151267200408416,1.0
0.40295210065460874,-0.37038351661539853,0.2217754937432492,0.0
-1.1832685446104092,-0.2940390282585907,-0.5251173799114737,0.0
-0.23421005513872917,-0.2427045657730294,-0.007249174891953333,0.0
0.25998227772787663,0.12572666781842962,0.24194077376911768,0.0
0.48408964568708507,-1.1478475558895218,0.20715603816731204,0.0
0.4368819384549046,-1.0749157289481417,0.1833954690573662,1.0
0.14092185993344006,-1.31863351528558,0.18319572907953274,0.0
-0.8120750417558982,0.2782447543440528,-0.08489083108707833,1.0
0.275035982710593,-0.09850522902736995,1.145802449503258,0.0
0.5449698822241094,0.270309749399092,0.5064446538269934,0.0
0.7921515182667674,1.3414745641976817,-0.153928185764905,0.0
0.018312064204649522,-0.0926709855269758,1.0277128227900207,0.0
3.3215942604570388,12.121895432130621,-0.43526811170610347,1.0
-9.978794266779044,-16.564578269142373,-1.199526421743625,1.0
4.569462352315717,5.961004189272067,2.742290214794006,1.0
0.32640163749420187,-0.1077362416421717,-0.18714657620829708,0.0
-0.08527323912040922,0.4073793052758214,0.33284219671624243,0.0
0.08996343271925154,0.25267341567694196,-0.22798096293710743,1.0
0.564488498092643,0.8086358088112209,0.21086765920487513,1.0
-0.3888697586602056,-0.5744991302412411,-0.000654484619867157,0.0
-1.641258964943173,-1.1362129772034597,-0.024156359381000216,1.0
-0.22151204384346124,-0.16241837130643955,-0.4351502281217609,0.0
5.529377509237227,8.355263754138617,-15.880714150394471,1.0
-0.9917218920328763,-0.07234658389267812,-0.2506622080328862,1.0
-0.6774775856472041,1.122583702851173,0.6100181165539449,0.0
-0.029031589437936347,0.40121065899963615,-0.7565639410569848,0.0
-11.735956895688176,9.439337066022546,14.081939402689919,1.0
0.14591542426017637,-0.6677209518702145,0.666596923615699,0.0
-0.35403184588998854,0.523952261472106,0.39107763334129003,0.0
-0.3087233386186887,0.05248377480636531,-0.5863420384813537,1.0
-0.4012067520699873,-0.6503099195043992,0.6034096193769192,0.0
0.639249491790218,1.767077429215211,-0.3373652014345636,1.0
0.28728803539727793,-0.006913970329479784,-0.049317408641132966,1.0
0.04943888858351385,-0.11583256632213428,0.7876412216364,0.0
0.7511855364585746,-1.4647309216073718,0.946172605978837,1.0
-18.459081187996173,-10.21445486541249,-3.074107693494041,1.0
-1.2146901806205495,-0.7927224128308409,-0.8113134029958152,1.0
-0.17940643200523618,0.8223188041183398,0.05806631042846248,0.0
0.0074147945197677294,0.5977224702223276,0.48255404682966935,0.0
-0.833059804012494,0.5278359345729493,0.6842304472773773,1.0
0.22688200435215694,0.45050782398791817,0.08090133155069652,0.0
-0.1343487663152003,-0.9924643790374157,-0.18598308737520514,0.0
-0.26407699832606857,0.38685053901589816,-0.733015649269987,0.0
-0.6063891476571929,0.4750334234878256,-0.03870035384458174,0.0
5.499976329628319,6.621549645446657,-15.71284594805782,1.0
-0.07287129425879298,0.5048864543994186,0.09858128547552578,0.0
0.16646695383546803,-0.43326579842752405,-0.342144265555702,0.0
0.45365594303349804,-0.07336873736427714,1.3818838528627024,0.0
0.12616111030251206,-0.3787869279491842,-0.024480783983705377,0.0
0.12035620084005275,-0.0800642057208668,0.5114640206947606,0.0
-5.0458638404583,-5.190670572984192,-16.59964240162055,1.0
0.5955545499229787,-6.13030356696049,13.699193166264891,1.0
-0.23345303242668816,-0.5695435348549887,-0.06289507419087148,0.0
-0.5267787660810251,-0.03724026476387065,-0.1504446703703441,0.0
-29.704874336248967,11.604918988707789,-7.549321518585384,1.0
-0.21186325357532257,0.1956537190784304,-0.4384804371734247,0.0
-19.36582162484544,-7.651796698697245,10.51317951885364,1.0
-0.12450777807268355,0.7209643246513824,-1.1079482048959621,1.0
-0.16609832222763884,-0.5824361449091541,-0.5258317047681645,0.0
-0.17990780931786488,-0.23479136746843532,-0.22529257226673988,1.0
-2.6316783223051443,-21.47561410882343,8.973967714037808,1.0
-0.41084257667529656,-0.12643562571239847,-0.29829987057360613,0.0
-1.0592219591380636,-0.10383030100739447,-0.10528784828439144,0.0
-0.7014782421196456,0.2809962493406825,0.25123655721640303,0.0
-10.67597561377025,-3.4109009241110284,-6.896861599402953,1.0
-17.6575501909156,-11.63561899254674,12.944572077935241,1.0
-9.027811955926339,-3.5322871044442956,4.7053550756762945,1.0
-0.3252401719288524,0.15250720625151568,-0.01978479828386527,0.0
0.5429512951574219,-0.3326986668028486,0.12872591990138055,0.0
-12.014972296667612,-9.47276440695694,11.691869039753122,1.0
16.332931812244563,4.291098851661942,-14.00414488709737,1.0
-3.198699268178026,11.20974258415119,-17.901241816120994,1.0
0.3795027741760039,1.5022603723855172,1.0860631130129392,1.0
-0.49474529291019825,1.6303585085147303,0.43568536363063587,1.0
-1.3305838997215287,0.8620446708370768,-0.9996220027493666,1.0
0.21949825275332027,-0.4749122468238828,0.5642375336869299,0.0
-0.041954357565000704,1.0699325512603584,0.3220427917023935,0.0
1.4951348735357055,1.2868942152665672,-0.7493634883572721,1.0
-0.19969950040089132,-0.42595279776038886,0.2206421919522806,0.0
-13.110024621552443,-7.646764757795466,11.828144663899803,1.0
-1.6063999861825355,-0.29259477441726023,1.2075684577456738,1.0
0.3148655453343825,-0.01224322348693597,-0.24939631417293726,0.0
1.0016262418865214,0.03390607858568773,-0.3442748761338932,0.0
-10.925888130252453,-19.497247731975527,-4.230709383229707,1.0
-1.0433051610266797,1.9173497458997737,-0.2711355249154392,1.0
1.596404538140907,-10.77433456036501,-10.639623147406912,1.0
2.0379684322994267,1.33750212620637,-1.481454936836812,1.0
-5.21390681885681,12.126851624922887,-9.41069159443911,1.0
-0.08418987605405258,0.4188466630399343,-0.07648437691939426,0.0
-0.18799808305063215,-0.11158109380901579,-0.23150001504367193,0.0
0.6995546008445245,0.5182874986494027,-0.1896090099374971,0.0
0.15397529878587832,-0.36584233821215173,-0.5061224316505466,0.0
-1.0928744944100242,-0.3132466756173102,-0.9744602579202966,1.0
1.0452278218289277,0.5591073371094306,0.26566152852564723,0.0
-0.3988977679587007,0.5494833121323027,0.3097636274732417,1.0
-19.329605589191342,11.401455413543216,-8.805888549211902,1.0
0.4722221677059393,-0.1319282652995801,0.038048659518691644,0.0
-0.08893858257164336,0.5060654278363744,0.27740288494060894,0.0
0.0484169202058099,-0.31731326193066517,1.0193356106493454,0.0
0.6459484173736397,-0.15165606261755935,-0.4625503111492798,1.0
0.1745750644026818,-0.8676976621755118,1.9739608194004814,1.0
0.7785188558794903,1.615428207076114,-2.0971594482061158,1.0
8.73207765755435,0.20860195007492074,-17.950989013843337,1.0
-0.25133238678353864,0.21135994048524412,0.18679794764719096,0.0
-0.9174714143071312,-0.26081116725836073,0.981492564304664,1.0
-0.5675750158353143,0.5608602745083637,-0.2137837021052456,0.0
-0.4192878551829021,-0.5491873023915974,-0.2620281431243222,0.0
-0.19233007932468318,-0.7009737018623586,0.3390795590805846,0.0
-15.473137325747777,-4.597525503800087,-0.4312517301521352,1.0
0.09462756692976983,-0.4624474941445017,-0.3546747938794178,0.0
-1.323129261780057,1.2995324927904504,-0.047520802703707885,1.0
-0.45765083458919165,-0.032087258875692554,0.011503875119390628,0.0
-0.5661718079645024,0.07984367514743254,-0.0033985221536479773,0.0
-0.3814718578273461,-0.31721646888409016,0.06871010498830675,0.0
-0.6151911155424848,0.5177672984164782,-0.08296946346916761,1.0
0.30430117483059665,0.03385471245625665,0.3982978351120552,0.0
-9.457318866064957,-0.29552057699425854,-7.41558540991344,1.0
13.72351766610105,-3.422935927627159,-1.6642383324600007,1.0
0.8439691276855265,-0.6555905344077964,-0.4941596339765463,0.0
0.8593176027178688,0.12463217855418027,0.1689168419946994,0.0
0.4686263342228141,0.8376619606410972,0.5135110599673566,0.0
-0.5600172999559212,0.25666911792728264,-0.30397484105873673,0.0
-0.38527703387219764,-0.6732079677249041,-0.22859131377907216,0.0
0.009142407060807156,0.47665074755995224,-0.292341851285514,0.0
-0.214028894639536,0.31006030073761964,0.03059429645800586,0.0
0.1228477286590144,-0.10124684627245271,-0.9796119916357194,0.0
3.4339964647894217,-0.8797849350846422,4.697102458335921,1.0
-1.50609760384217,-0.04131155318015023,1.3522600827898281,1.0
13.25422594376965,-18.706266476534054,-2.896812154767309,1.0
-0.11779819183941555,0.9603597789206628,-0.6583982232930754,1.0
-0.03919746823363484,0.2414184298285702,0.10356189098408292,0.0
0.19746107443646238,-0.49579231569639537,0.5810213337665906,0.0
-0.5692891123514862,-0.7312981739136651,-0.028648966725004412,0.0
-0.5672405190262124,-0.13504894212693383,0.9426483820576613,0.0
0.7544797795211033,3.8918375897231776,-6.244902285567903,1.0
0.3430403529794378,0.13904951883306066,-0.2435215489647634,0.0
8.235380894894364,-1.7026626786103658,2.2946518715759763,1.0
-0.14278825250458654,-0.4047814495376697,-0.34259797040480905,0.0
-0.10931313668124637,0.8256889014764051,-0.670998847932567,0.0
1.5934571255442809,-1.6110103950848083,-12.059050617667879,1.0
-15.968452629245927,8.026298726636472,5.54142661714902,1.0
0.720201836883665,1.453950572515592,0.39410155736151453,1.0
-3.2360770298109918,-2.1940594999918783,-10.738883013575398,1.0
-1.314320915808482,3.6614126542690597,-5.146387188429864,1.0
-0.5149023066999809,0.6643952337707228,0.3138897097791904,0.0
0.6153775125588435,-3.2217310421791403,-1.8658662879394246,1.0
0.6317472477759463,-0.05331825778180322,-0.17519284827950304,0.0
0.6613491968709627,-0.6910774262598045,-0.2973185226862819,0.0
0.6370676378651325,15.40076487548468,12.229742954660148,1.0
-0.06469087504833633,-0.48016614818887554,-0.12094863710890486,0.0
0.7814026964721131,-0.6124904005053945,-0.11060083726610628,0.0
0.9860177574083187,-4.3056103845445755,7.156164843021598,1.0
0.1839881742047921,0.8851246370408618,1.5266543434115187,1.0
4.779329284903443,-9.759050868163303,11.454958150525256,1.0
-0.4675418306089572,0.5661045428661846,-0.7683401683663591,0.0
-0.30455006257396094,0.10445637620069662,-0.4658753257985388,0.0
-0.09241100864221471,-0.643417338025314,0.1727849051341591,0.0
-0.40157045984647516,-0.1974271004096251,0.5750503962214031,0.0
-0.5737770894031669,-0.16268879174518508,0.44223111209816673,1.0
0.24177057190746884,0.18207365716613536,-0.2935888244347542,0.0
6.85918524472119,11.13469256559551,-2.248387069449969,1.0
-1.384768901184319,-1.0664171546196617,0.8524035878611982,1.0
0.010390461614101194,0.5750373161867838,-0.25034512432210393,0.0
-0.4017033655243071,-0.5686463188207753,-1.4828856652270745,1.0
-0.3063063900093987,0.25460888814028554,0.13919733187924255,0.0
1.8539404230725163,-0.08248151155773661,0.022708021656977107,1.0
1.4798777997158123,-19.553499102216005,18.916045009321813,1.0
-0.298506567465382,-0.43532411977496377,0.2899312835495519,0.0
-6.485008181212674,-0.6043870200822643,-11.682392540554126,1.0
-0.4872297664780882,-0.20762602113372422,0.1914111101295576,0.0
0.024287595858114314,0.03008226288540379,-0.44375202864135205,0.0
0.6500682244073802,0.1659868047387357,0.19140114614189926,0.0
1.4371671247745743,-0.31826733329374035,-0.6439103541980338,0.0
0.19812984226034713,-1.4221291317437397,-0.1972587066966998,1.0
-0.533220413381448,-14.146956665814258,4.249764232036167,1.0
0.8304735709753699,-0.38975308439699213,-0.8466531130749716,0.0
-7.665841175792471,8.666947748841565,-11.962396059654893,1.0
-19.1008047351619,-7.31095146220147,9.153385900829793,1.0
-1.1569592615546556,-0.5272462586147899,-0.7421491668021647,0.0
0.5169154618954921,0.17582844997216932,-0.20146772871123675,0.0
-1.4580101242992973,3.606693748440954,4.553878552854948,1.0
-19.0334513918244,-6.680696332802835,-17.77789721912412,1.0
-1.7290868088310651,5.15954952036235,-7.982365442924921,1.0
-0.2768428780526761,-1.3954723214650384,-0.08197103115367667,0.0
-0.024400710909581125,0.4548978578507043,-0.32672862273264935,0.0
-0.25068099669799354,0.45559518427645246,-0.02188959150192208,0.0
-7.522078747999296,15.419437256198398,-4.757082019695017,1.0
-3.100720840144932,-19.371892910958465,1.7332410191018155,1.0
-0.04623350039035916,0.4586316557853287,0.21976270209583176,1.0
6.592561705432272,6.037583114186372,-1.206270389722338,1.0
1.329591041906303,0.16433416062762904,0.43802753852535264,0.0
0.4878157246748564,0.6808109063958707,1.1984217382956528,1.0
0.14254467623180017,1.1138867393025218,0.6410160880178353,1.0
-0.6110883137555309,2.1106693331299016,-0.07771751459559632,1.0
2.3274559932953656,1.1310473803230066,-1.2827938780827315,1.0
0.24397473232568756,0.4856090674979305,0.38995387576277735,1.0
-4.452180533072873,4.590820841696991,-4.869895209668825,1.0
-2.0140928889563647,0.010081048977035104,-0.6570072749150083,1.0
-0.3789901213568953,0.2125870641692518,-0.5248761670773046,0.0
0.36561011888434575,0.2784624630593118,-1.4456097160486656,0.0
-0.7283857310132719,0.4037472436493677,0.8325746773961955,1.0
-0.6267287613690903,-0.0011675034220200206,0.36421451424464685,0.0
-7.119561041175835,-2.417810731172711,-10.029863302476175,1.0
0.6192043624332728,0.3737935094633994,0.6646908570571906,0.0
-1.5662119606408207,-1.3196976758753751,0.5604874130773108,1.0
-0.853635047659396,0.2822009039813038,0.5762383670708239,0.0
-0.03367867945209869,-0.37554235571169614,1.275226823957183,0.0
-1.1170469626302262,-0.31655795920740454,0.5857198394294805,1.0
-3.9659534204804423,-10.298439587784776,5.047419737098719,1.0
1.7208003174178812,2.7200937046172164,-1.7307868844018945,1.0
-1.2654000149545561,-0.6625248930201809,1.974055850611231,1.0
-0.6046486877405725,-0.9713015186388309,-0.13590694899975705,0.0
0.532195292962754,9.557893025843093,-2.6645708733179903,1.0
-0.297937617263064,0.6219184079406928,-0.3492601100041706,0.0
-0.15726915997450278,-0.06960242049017819,0.09912781115523349,0.0
1.345809766159212,-1.1428868838896082,1.822200425036452,1.0
-4.432050103244234,-17.339690358186527,5.5120115975624,1.0
0.7179186890980905,0.6111348468809784,0.20639933925213358,0.0
-0.08635351127834635,-0.6837965846474376,0.1603798831835833,0.0
-0.284624564549445,-0.9382780477364222,-0.523580071297587,0.0
-8.863512048772092,15.285849841107266,-7.4454665755186555,1.0
1.956611471877475,-0.09293481500233837,1.4117021325452412,1.0
-0.32556898043567745,-0.34375976268491704,0.16232453149283207,0.0
-0.598316904422995,0.1804809469024403,-0.15810240975952178,0.0
-1.8434487431862674,-0.17070136601765198,0.5551153822151189,1.0
0.2570602444874209,-0.5576755946962859,-0.13325255478406905,0.0
19.0705774293556,-3.1632677401297826,-0.3707680639208263,1.0
0.5108340740218029,0.7298565105160741,-0.026102610480240162,0.0
0.006207894511685913,0.0348967348038415,-0.7338496572724232,0.0
-0.4580517174890692,-0.15251492559333085,0.428762794070539,0.0
0.12974135302126738,0.1459796967571818,-0.038984341506707015,0.0
0.943662188407331,-0.1160268835626124,-0.368002468463897,0.0
-0.13984733303179123,0.29145247592321344,-0.11141178664826766,0.0
-0.22645934911377422,-0.6921050545579825,-0.33495729566867544,0.0
1.4819086173488885,7.904319646597661,8.948987856499082,1.0
-0.4877123278481333,0.47427107713168787,0.08751670825453776,0.0
-0.3982065423713106,-0.5061349483056292,0.661512021814062,0.0
-2.073817132434109,9.610600290687186,-2.045092754535041,1.0
-20.29942281175491,-19.659572503195506,0.1462973864486453,1.0
-0.12282779331511026,0.6170757737361751,-1.0925340069749212,0.0
-0.07959863517892221,0.044350193956217296,-0.06811566829827043,0.0
7.720332621724005,23.115457074724706,3.0826459175631578,1.0
0.32647138856279767,-0.5060403626459701,0.0024123995333821986,0.0
-2.7848044064931594,-7.392504061194499,-2.077165184834498,1.0
0.5089514949206753,0.4375276110702362,-0.22308808196333899,1.0
-2.282160569901446,-0.09485297687528929,-0.2639788264608469,1.0
-0.5464184410231767,-0.38883603528571425,-0.5262293212026457,1.0
-1.411696303482066,-0.6893290720871923,-0.3108248391631714,1.0
12.785883391097022,1.3527735120353803,-18.917567048291396,1.0
-0.3292108124269945,0.40245844355961474,-0.6664876794336945,0.0
0.19328272297356047,-0.2645865822802145,-1.0226547079586785,0.0
-5.036222704308884,-7.725997485565635,-11.68848410366943,1.0
0.7309955760010283,-0.7715565917192074,0.24662713246296458,1.0
-0.2561959417294739,-0.6002842133848411,0.43533671096106047,0.0
0.2944650169228291,0.4913466104556098,0.5246552453871545,0.0
0.7454143098649629,-0.12119600465750315,0.7557556684177417,0.0
0.5838493625362687,0.5651652394575386,-0.3464361208696212,0.0
-0.06895488455902551,-0.6256823569737362,0.6560461767685251,0.0
-7.750739593153896,0.1142243793763243,8.249057946885046,1.0
-1.9455677654892276,-7.101000045931086,19.45747729347702,1.0
-0.13627422151859686,0.009184242221125936,0.05411417899488388,0.0
-0.11263836697444891,-0.5692780561721669,-0.14093717136009262,1.0
0.3525328534080855,0.011833302457391306,-0.006505624471869932,0.0
5.4335284457918895,-0.5780624572587507,0.8560508077096338,1.0
0.31335715632835504,-0.717961600357469,-0.5967446180164492,0.0
-0.5398287765549619,0.13464428350377963,-0.11197145505112048,0.0
-9.724294136283728,-1.7382573082016783,-7.671736033832132,1.0
0.6154035295318966,2.0736940069714205,-0.03746350655172205,1.0
0.3350678269760018,-0.37547664230184136,-0.09370495831277871,0.0
0.12331998806566262,-0.12362576070458324,-0.5590198332193761,0.0
-0.337586675860253,-0.6881030983300591,-0.4399835463533708,1.0
4.042006093300428,7.109250739915872,25.24777029795704,1.0
-0.2941901790833743,1.0165284127678136,0.6616824808009993,1.0
-0.35372362311117544,0.2772469503084763,-0.36674913981628776,0.0
0.4829632781852125,0.6228201327193433,-0.21542993319975579,0.0
0.0026906582946320833,0.6039035682987083,-0.8267798146311035,0.0
-0.987622832835161,-1.6503491108208572,-0.7709623234435634,1.0
0.02721336151006105,0.13285613109063654,-0.37899402526771697,0.0
-14.216839700631228,3.4961259044915822,18.01300911149143,1.0
0.11044164111678693,-0.4061924954189394,0.2644926061308258,0.0
0.06814212297844231,-1.314945655842897,-1.969619007646935,1.0
-0.6767308540707289,-0.14518587168108302,-0.3650213158767706,0.0
-5.7112917395864224,16.677438747076177,-12.360188088075184,1.0
18.794885174951805,8.881361809247714,6.321628727817883,1.0
0.31454865452110276,0.47364636807454386,-0.4385859759194141,0.0
-8.597831067581689,5.933862449369825,1.286348242919066,1.0
-0.05516536679599424,0.6830321618370871,-0.4564089315974125,0.0
0.40412905483012435,0.2191205331764202,-0.17670702661017731,0.0
-0.08861275047164106,0.6684785977985861,0.24773243031570225,0.0
-0.15804525989302212,0.8285523028162273,0.017029047569547706,0.0
-0.4591052664880046,-0.03325356568137655,0.2168522701207385,0.0
-0.10883054345211801,-0.9762219810584722,0.19453959301262438,0.0
-5.237760120379779,10.075784504741282,3.3426662566886205,1.0
-1.2601353891641656,5.881475497761832,0.4811389393190538,1.0
-0.1324118096768411,0.30142118344919727,-0.2978393784476616,0.0
1.1572958472792338,0.41014406781136287,-1.4798497622499225,0.0
21.587852815357948,1.9675670753890473,-1.792099512550288,1.0
0.07269460036385421,0.7402751126926248,1.0326748590707522,1.0
-7.71661613437995,10.447833625908798,-16.89315671465365,1.0
0.9851377928439587,6.037415182282601,5.846452507736869,1.0
10.013680266895438,9.547846285459485,3.00806529205204,1.0
0.6121289622226106,-0.40403500713689233,0.08018529833985898,0.0
-0.19476786141300534,-0.07815288469095077,0.43615799866209826,0.0
-0.5075537162955134,-0.5895975068176987,-0.05685417083955276,1.0
-1.5626957099008032,-1.1105210018985185,0.9121583631263127,1.0
-0.6798393845860059,0.0032159129110489984,0.6492615087481988,0.0
-0.37714343150573437,-0.09340969193218727,-0.4048318950440679,0.0
-0.1807225774262523,0.18291216664231771,-0.5008575960486861,0.0
0.14729919878950418,0.10812348287130007,-0.6892760533093367,0.0
-0.10848984750188266,0.07430709728538534,0.41133245743258884,0.0
0.38869167232632507,0.7788358624118408,0.2589304814500781,0.0
-0.00048288599208419725,-0.2405793943360668,-0.758170977341977,0.0
5.143077251283946,-8.457229749961897,-1.4554702583731058,1.0
-15.099287958028185,-3.6330974328959798,-0.031126296820475255,1.0
0.7525262797152471,0.13464456467003666,0.7005626917757393,0.0
0.5691892723731247,-0.23890321507737033,0.6376433542607244,0.0
-1.2437740178393308,-14.350785758392208,-13.170713066558147,1.0
0.7530809825898885,-0.17306460848824548,-0.6371482455898495,1.0
0.4858787646910259,-0.040032524975693505,-0.03282011902077916,0.0
-0.25740376569714485,0.11467753683115041,0.35387341016963864,0.0
-0.5265923278965917,-0.2948265451596502,0.7754992212445111,0.0
-0.9172697078092042,-0.24547029457986377,1.0330679923800126,1.0
-0.44834038449364955,1.1571995961296613,-1.698156003494996,1.0
-0.6840998518374739,1.1721552070760206,-1.8791260196981348,1.0
8.032747660182762,0.23139288703113106,15.59219089336808,1.0
-3.0480633491313665,-5.30968123971526,6.709545198333556,1.0
1.4394203044887355,-0.3674046580802052,-0.31313828780657965,0.0
0.13068230931777827,-1.3956568652496644,0.0001316960446426858,1.0
0.86388399961388,-1.3121901222734143,-2.035861281687241,1.0
-0.26904825960656525,0.5213645179739724,0.6329596119616895,0.0
0.6325382131808086,0.19882637729108935,-0.642848908739813,0.0
-1.5154392682724827,0.6563389480190767,-0.726064940400932,1.0
4.778626009764444,0.042154241409453674,9.35915600616903,1.0
-0.6183491697192162,-0.21066512842725052,-0.32950458201886373,0.0
-0.566173875621322,1.0824841514091943,1.2963452372015425,1.0
-0.16122977515655593,1.0995884685021486,-0.8849904374625599,1.0
-0.6790528555878604,0.2610273649511434,0.3900722242388113,0.0
-19.57316455986843,-7.552128714083929,-11.584650420342156,1.0
-1.1975166882956652,-0.03213358284605598,-0.37069727049896734,0.0
28.223310765587776,4.823885939028552,-2.24564059061421,1.0
0.8087731859726028,-1.2233664356432299,-0.14648275403243835,1.0
0.2688551110364988,-0.06533503628990915,-0.24077619548528906,0.0
-0.013286044705531887,-1.2929426003242281,-0.39012329430790094,0.0
0.06182022259780848,0.5495091216394548,0.26041017543553824,0.0
5.047289090799091,0.5686315830467183,1.1707812460242786,1.0
-1.240966267472163,0.1693435125533352,0.010643474563291878,0.0
-0.18576067497984944,0.5475528334862239,-0.08626835888552885,0.0
0.749761542227732,0.17379801370192977,0.37439307346217704,0.0
0.5191563383044469,-1.0407098695323465,-0.9317051469009108,0.0
-0.045084135338544155,-0.1758002722030402,0.01677830920285264,0.0
-0.7424200387159178,0.5944762158072675,0.27464027372168964,0.0
0.19086941881619499,0.4280913227112529,-1.1538379372472845,0.0
-14.399815330601726,-21.87093171557799,-17.669742920208467,1.0
-0.30756511865610525,0.397152242646916,-1.5766281009414116,0.0
0.8769666141727487,1.3887210070311962,1.1103129255938256,1.0
0.42256927214899725,-1.1292719574551322,0.04484380074919004,0.0
-14.731263640391358,10.873865213843558,-2.4663150342425157,1.0
0.3112566814380272,-0.01067283661089831,-0.14962869085938738,0.0
0.2988501657266786,0.5593943524643008,0.13239419212046755,0.0
-0.5664420184198122,-0.7361482156371686,0.7608190408029256,1.0
0.7680932026716302,-0.26916142478411353,0.40444264866605245,0.0
0.49229835186879606,-0.44349390839278297,-0.2884874118615261,1.0
0.1353708457961725,-0.7545505041354769,-0.02773637237441265,0.0
-0.6102636746793048,-0.4647627642840854,0.41533724336390204,0.0
21.995134650981086,7.200020903676641,2.2819407759426906,1.0
-0.2696996929772077,0.11745961628699282,-0.08535227211265234,1.0
5.6315666727103935,6.430768436572211,17.856316611967266,1.0
-0.29554793786765576,-0.5287147043654937,-0.10713350005925404,0.0
0.10338416138104398,-0.06914489697490211,0.6502776416935866,0.0
-5.929176173248849,-6.41441707030388,-7.595790478711464,1.0
2.9644036994673773,-21.518876753907886,4.9848542860582175,1.0
-3.8934540182248716,1.4483390476290123,4.780484152226961,1.0
4.071941125287853,-1.033662143644772,21.377324983165067,1.0
-0.24463321605807156,0.044128747595856395,-0.25704161531648867,0.0
16.020848028907345,22.117793119762595,-1.3640601255720997,1.0
1.3070617424756503,0.1591278601982813,4.970095078217344,1.0
-4.441589955273195,5.495890284235621,5.916820354325118,1.0
0.16273262102198874,0.20135385827644858,0.37696935779362123,0.0
0.3876013323601538,-0.38424767320745834,-0.13326325086497803,1.0
-0.15534067153597608,0.0012133914739737408,0.8456525407906393,0.0
16.89422008585509,-7.30305632427913,8.424467025635963,1.0
-8.338755782564984,-23.192302315986176,-9.815763242788124,1.0
-2.0670102930365215,-4.857065883929161,-1.426897406675576,1.0
0.3719664472400771,2.473049721909292,1.321903997926712,1.0
-16.43573108007026,-18.02560157125733,-3.1285669004992562,1.0
0.7476883663882002,0.12000210015998218,0.12228839339834958,0.0
10.650973249720154,-0.7261775983688151,-0.10208868892481211,1.0
1.4485635095081664,-0.7803668557709116,-0.5406513859520476,1.0
-0.21911574490701735,1.2091206752845758,-0.7549090290143698,1.0
-0.17516649657883007,-0.23298418721248618,0.18035254597223363,0.0
0.11503645121299873,0.5991043679824058,1.1968456741002227,1.0
0.8136432087846791,0.34997895997206996,-0.19376051843388098,0.0
0.6321566404966742,0.18875173308427542,-0.4169730628793998,0.0
0.07793189401515742,1.5191517888550912,0.11060289180198193,1.0
0.291473444534598,0.26316387347203557,1.0135842895493619,0.0
-0.43959757576910885,-0.4036782126648093,0.9753975711856299,0.0
0.2951957104722853,0.9105478541189869,-0.10169439758324103,0.0
0.1947505111763398,-0.23382213357128864,0.06986664313503135,0.0
-0.5265348779374771,0.20395333223841103,-1.7259726908587851,1.0
0.13502091107798087,-0.1353680926558753,0.785551530681534,0.0
-0.5128112517854305,-1.1752915669707356,-0.43976818470305906,0.0
-0.406110022155184,-0.40404041646919303,-0.2895978752203737,0.0
-0.05521636515303357,0.2071631344579827,-0.5062224129251647,0.0
-2.2047769342387817,-3.1916840083868703,22.325674260299607,1.0
-1.085308310403441,-0.9656227983095074,-0.3762903965943605,1.0
1.8658530681116234,-1.5635161644897826,-1.170430271463197,1.0
-0.39275497382452057,0.40317083236951523,1.8512756174681746,1.0
0.8660898362085988,1.1344448445549697,0.7096992494447417,1.0
-1.4934256108215247,-0.20578295883059905,-1.2760839383900593,1.0
-0.41051840970964343,0.33368738610785253,1.0958853924901144,0.0
0.034054857429362435,0.6258035638995786,0.4329208575667382,0.0
0.13016241812517393,-0.872000855321043,-1.4727385982539452,1.0
-5.601959355401504,-2.7617273537016542,-3.1444566927844777,1.0
-1.015255370094423,1.1628913606060058,-1.1469787491325416,1.0
-0.05271504148155963,-1.1160214209273538,0.43133632210259376,0.0
0.8243579751669183,-0.08690908333451046,-0.2915490796475173,0.0
-0.7281765088548989,-0.602440103221817,2.3584956837008657,1.0
1.9207507556692325,0.24316050130205316,0.19407108606299486,1.0
7.5247853851264965,-1.7017482529157555,-1.3734452729589397,1.0
-0.29661076080285886,-0.46397936162834186,0.20981721348616073,0.0
-0.10073239967818852,0.09999209056020861,-0.3403204033006182,0.0
-0.29749649784834326,0.21484282223123402,0.16114212340799375,0.0
-0.6809706145935462,0.8024859359568497,1.5432259659614513,1.0
0.7319007587783742,0.2864888721689794,0.5104353252827376,1.0
1.174200268224195,-0.1005036921900506,-0.21506422241619372,0.0
-1.0694057337299474,0.3906638020679763,-0.4629687438179638,1.0
0.27214938025839386,0.2503148827274832,0.0045561874043371685,0.0
0.2768994613843958,-0.5333183232545449,0.1591269617668008,0.0
0.013429081554876227,0.23230462762174334,-0.3182432372997939,0.0
-0.7446647505451099,-0.18454869858474157,-0.4541024882907184,0.0
-10.676517594287922,-6.781665632702282,1.607485991131753,1.0
0.26584158902053195,0.43641048344774647,0.7531516162401866,0.0
0.1952578344803509,-0.5016471206013148,0.08895111184596337,0.0
-0.23588466813818823,0.5160316636872992,0.603369247550902,0.0
-0.44889807513456575,-0.6085409373175714,-0.27716462292478994,1.0
0.5142110419143971,0.5341804877934727,-0.27861012392088397,0.0
0.1890661206257849,-0.4723143973809998,0.5152338627808744,0.0
0.5725974738504889,0.20397569199799687,-0.29443720349075075,0.0
0.3938665169745039,-0.15487387918462625,0.3778658217302917,0.0
-0.2467626203016018,0.019299520101021716,-0.3856492755595576,0.0
7.632375344967711,6.509116693272591,-3.050469793865354,1.0
0.5443804735809726,0.4051298762947227,-0.1849181661922919,0.0
0.5781916864777104,-0.3100215730052251,-0.4716200494919675,0.0
2.470736585127243,0.9643972533858274,0.8240798562987726,1.0
-9.582650341595881,5.825742100052378,4.281245691517536,1.0
-0.17802838414672972,0.5973367281075062,0.07815146082211122,0.0
-0.2817512250397844,0.03730978753715062,0.3385459022981136,0.0
0.8809839512788649,-2.1462012411085114,0.017949471392997483,1.0
-4.951506297007129,1.202076809938343,1.7801326937818687,1.0
-1.2244665518086217,-2.1054253841619937,0.5125514269760715,1.0
0.019728487019231356,0.8634523790669397,-0.30618125263651697,0.0
-0.7020556137194073,-0.4342879389312802,0.9373669623138348,1.0
-14.102449116958182,-21.048251723939465,4.227306308694915,1.0
0.996475265614119,-0.003038755459446818,-0.11105403039395091,0.0
1.7008607683934647,0.35108251141570634,0.9689135904075272,1.0
-1.3237479197903033,-0.7832160622000227,-0.7319185613084727,1.0
-21.097417642825697,-5.32116442261057,-15.236034435506141,1.0
0.19701956566575415,0.1272166069929802,-0.5986319109334433,0.0
0.7321517550121678,0.7595771187361451,0.4160619877808081,0.0
6.758783254329731,10.569810518188813,12.009184354756911,1.0
0.6576466709015619,-0.23918247065046894,0.009203064643908805,0.0
-0.3030962713597994,1.737948974145826,1.2600918507221177,1.0
-0.05063357902326255,0.2601783943275758,-0.42590051861040035,0.0
0.2511082950351924,-0.33823618154526636,0.16319594939996954,0.0
-0.3948580800667161,0.6243843329614142,-0.8705126892729191,0.0
-0.39794012786253463,1.2425153890259713,2.307919685589294,1.0
0.01764802907062899,-0.23986405899705243,-0.32830176739193767,1.0
-0.23895678543897636,1.6067976953482435,0.10584259501050994,1.0
0.06359257873387737,0.4901768057454365,0.09759116116684514,0.0
-0.026622549368685598,0.36210012614132797,-0.2568711018822866,0.0
-0.23777872782849613,0.20354703135685207,-0.26149187854817574,0.0
-1.7143314655492305,-14.094365406441835,1.2520719210137137,1.0
0.7847378940829776,-1.5847023390926585,-0.1498348824669337,0.0
0.5338424827319811,-0.08450753861759522,0.23107783296658532,0.0
-7.806000137214269,-10.352856777820662,-7.608947297489608,1.0
-0.7727591796929926,-1.136445815762314,-1.427840981076597,1.0
0.09849905717288338,0.17086756438431766,-0.6745997868354164,0.0
-0.9836825041120968,-0.4137588692863975,-1.1160879052864576,0.0
0.3521387118613027,-0.32012988992071967,-2.138925800328885,1.0
0.16388035762285316,-0.42680232033084337,-1.1909373559625742,1.0
-0.2480789292363052,-0.06913512203903455,0.11030839510247249,0.0
-0.15554920078748247,-0.0483392776731909,0.0004319234226031844,0.0
0.6504082156259429,-0.15117177389443084,0.2655070914459962,0.0
-0.41862928721097753,-0.38925307397657655,1.147767576424976,0.0
7.223825363303674,4.5384414865120615,-14.587413551627685,1.0
-0.3701476326587292,0.28291251711630505,0.6177208319318379,0.0
-1.830959595562317,4.93807174193786,-8.185710786803359,1.0
7.010595098220705,3.944969842491129,-2.2004552109880025,1.0
0.16569460656418483,-0.1302124783079215,0.31199710748397796,0.0
32.61418405521064,-3.3581982949186813,18.4415081643971,1.0
12.554999733662612,-8.13674842434831,14.75032007658074,1.0
-0.1558356019305642,-0.2598343274664778,-0.6100705268350859,0.0
0.9577235174611098,0.18599864309333977,-0.5948117650157538,1.0
2.782916344887756,-11.87172809513892,-5.815909414733235,1.0
1.3950130556480589,0.7972604441658071,-0.3841700788217244,1.0
8.923715234596855,-2.5534767723966993,-2.7226035676877407,1.0
-0.19620452674574868,0.18355904291756012,-0.14215773173572827,0.0
0.4057907516955525,0.071806784382062,-0.6037532856757124,0.0
0.7166990444940554,0.08038257311118205,-0.3213865783051528,0.0
-0.7026607078374154,0.5535141508922933,-1.0444165767564817,1.0
-16.361883333216426,8.930234062147528,-10.425527812461947,1.0
9.204818778218208,-2.427529395215951,6.348545681998793,1.0
-0.32731227507371,-0.6345278779199752,0.4221053682876739,0.0
-0.003492528415822306,0.29806231093092417,-0.2560081775871188,0.0
0.11637224093803923,-0.030448384369603183,0.6155370634484888,1.0
0.4775018645169142,-0.22287317635272835,-0.22311372621644976,0.0
-0.04346436661909278,-0.16740647818394278,-0.2660332858075867,0.0
0.2957837176959889,1.0865019400651557,-0.40812053200718207,0.0
-15.807775233103243,-4.6622528037541935,-0.6328892863335414,1.0
-0.7738629841083678,0.1641565569473785,0.8774245033908866,1.0
-0.19318249544742727,-0.30854497988876095,0.2795684262029017,0.0
-6.909874236474768,10.396336742090613,-2.444797925158724,1.0
5.476658784797897,-0.08839595811993782,-3.183694059325732,1.0
-0.34010502973692275,0.009115895277936327,0.2227167570891912,0.0
0.06493564817105213,-0.5522673976970351,0.6211567040541304,0.0
-0.30469299328212895,-1.8735195724559726,-0.8662473186600586,1.0
-0.012825743617374173,-0.11100807741228834,-0.9699735311878853,0.0
-0.3134776524776733,-0.5233739236194682,-0.7757291925319022,1.0
7.752111281073332,0.38201714413020565,-3.544659717496196,1.0
16.45668180050821,7.182879309419386,-10.50839233068523,1.0
0.40463259607484137,-0.21436926955781918,0.6247911859861739,0.0
8.478040142380564,-7.211818729483642,-12.780762301582996,1.0
-11.148399312706864,0.30662773592995574,11.340085619216877,1.0
-2.041308266678614,1.2135853406961743,0.08241309211207175,1.0
0.27426103744990976,-0.22031424847630468,0.5410557894785573,0.0
8.480701254021705,10.409044239529635,15.314688913088732,1.0
-0.4188523355511857,-0.6797162019765359,-0.696080977637653,0.0
-1.1413895149456488,-0.36435124021742415,-0.17968857461516224,0.0
1.3475155366687175,0.18683956923495487,-0.9200954036356283,1.0
-0.09284474857327765,0.43743051312628806,-0.6009123712654437,1.0
0.8910133213904712,-0.5844521886020728,0.07924740296463828,0.0
-0.19811806897536505,-0.8391473426945275,0.3426965941621144,0.0
-0.759765377174055,-0.554175722924786,0.3340508769230045,0.0
9.292420216270216,-3.4070983409510895,-18.212303369315897,1.0
-0.15823909371512174,-0.5085919741264499,0.9085698760413164,0.0
0.22153773767688978,-0.30837769196065157,0.6178339246848288,1.0
-0.6690404923713238,-0.7518906430770121,1.7591260535623339,1.0
0.08844080836645049,-0.35024209063268535,0.2978802371907892,0.0
-0.12590984469076494,0.43217489310272,0.4530699240235107,0.0
0.08590911351750494,0.15189358082509116,0.5102526066478887,0.0
0.29580336212328584,-0.9645716283648542,-0.21037808707347072,0.0
0.23163365952481837,0.5232844349428183,-0.12628436869414647,0.0
-7.21545504400323,8.18214659254132,7.907990670834897,1.0
0.20568711623510683,0.29355143097563363,0.6175699078850405,0.0
0.7544860386786563,0.051301045740622504,-0.6959712695091858,0.0
9.365491734954999,-11.681003362279611,-16.22723110101144,1.0
0.8914974008645765,0.5101492293765647,0.10996295757404916,0.0
0.22721227672990374,-0.04674327860179492,0.004341976954639357,1.0
-0.8995307255997661,-0.4332498999700418,-0.9848250842379022,1.0
0.48784958537867457,0.7963421576954507,-0.15039443468124064,1.0
0.40120599517164485,0.37900723586724255,-0.5272437603830824,0.0
-4.1844809141259685,7.308240523013447,7.981085386297383,1.0
-10.836151539605687,-1.1813655273506116,15.488861483624492,1.0
0.5037635898916051,0.6074114413134036,-0.9363535705183031,0.0
0.8760399352432314,0.6519641324961964,0.21623336359686116,0.0
0.7217585994899195,-0.5025204758271825,-0.8113342206244684,1.0
-9.34569855239314,-5.3975447903274425,-15.710203158277576,1.0
-18.700852864167377,-14.057761090118078,-14.169307384494271,1.0
-0.6543162267089709,-0.043163768376797626,-0.283276731118342,0.0
-1.2192768251336426,-0.5723553079177163,2.123213845756937,1.0
-0.8117123878358093,-0.06690011584340803,0.28548226375488917,0.0
-2.5929219577813116,17.39530667440157,-2.309567466047176,1.0
0.005476947026930498,0.4951951031497201,0.324963370408464,0.0
-0.2969400111230258,-0.49198283700116996,-0.052660732323245585,0.0
-11.178677155614636,-4.496324043072844,11.05911345742384,1.0
-0.585147102670642,-1.05007291485922,0.7295841882346129,1.0
0.7134268441652342,-0.47387956161885353,-0.738691224068127,1.0
0.33277641867487007,-0.7772674347750302,-0.7484895907977791,0.0
-0.002010314896760747,0.49996974288879964,-0.4264875609911692,0.0
0.04120068696003272,0.3437126314598106,-0.4764262190488752,0.0
0.29982018852920417,-0.025048867678215365,0.03763322060369856,0.0
2.739939532608492,8.17642469994608,-11.819481856962348,1.0
-0.30229463118435174,5.1286001692959555,-0.6619902784500802,1.0
1.8170493386387767,0.8058386651253959,-7.499324859945492,1.0
-0.5464349026728624,0.38260257849273427,-0.5888670906786184,0.0
-9.98606410567767,5.704216606715315,-16.027210828991926,1.0
0.62376990817342,-0.24422182684489296,0.6175801468743635,0.0
0.4121847607442613,0.2910737388562535,1.1690125457702258,1.0
-1.3737175715665348,-0.3799399033300611,0.27444988330464865,1.0
-0.004241451169434207,-0.7282807643706264,0.636400652788877,0.0
0.24971948193689975,-0.10209034397729456,0.6393044990894892,0.0
14.118249201706492,3.5285034554808186,-23.702556231168558,1.0
0.41916243751097304,-0.23792095376529068,0.13469764118955316,0.0
23.88703312329339,6.2464000026719475,-7.38828111563854,1.0
-1.6512771673381212,-5.599273560563983,-11.56391579944276,1.0
8.63302277507346,0.5402405122942165,6.980569649540042,1.0
-6.539107093664896,-11.97807572638338,23.882255726459842,1.0
0.5307614308861809,-0.053893824163612346,-0.005593616327925172,0.0
2.870330707499518,-5.420305490970775,-11.28339920537067,1.0
0.11828288389312032,1.1373541380935184,0.16320520211907416,0.0
0.3305925769325795,0.3111447230164237,-1.235438119440792,0.0
7.676087437943526,9.645372754516647,6.035547660159243,1.0
-0.4221896967773056,-0.3926394583295181,0.2957937201409828,0.0
1.2525586277670988,0.2528919521200439,0.5218213862868399,1.0
-0.3813128328131171,-1.150988262727387,-0.23172918775952095,0.0
-0.5309612872471143,0.17555758983239667,-1.6663744452114606,1.0
-0.5709567095226256,0.8815488285559784,-1.6489404488114572,0.0
-0.1265310115306527,0.19524932299301995,0.10102889706030668,0.0
-0.47419467985887304,1.2162866696119472,-0.6124409929786068,0.0
0.09580480349659164,-0.1586738717785597,0.03992806340029758,0.0
0.9685295346261453,-1.119863936590454,-0.18543213146832788,1.0
1.7147428926044357,-0.4803402092508042,-0.5591043995549856,1.0
1.2181470110273096,-4.63032573204189,-21.97449567562398,1.0
-0.5569866564578282,0.6332319215935576,0.6368415394405283,1.0
-0.6655366108898267,-0.4026053906287498,-0.5548368367496378,0.0
0.19326999813465848,0.6130485245344639,-0.19467034759667465,0.0
-11.769379524138266,-3.5299481668963844,-2.1188491681307635,1.0
0.05308823586886614,0.17021129849229347,-0.6505096080096645,0.0
1.1254668472059064,3.2055637272146065,1.8324843180532957,1.0
-7.995873826912154,-4.806606461894619,-2.895637451205597,1.0
0.6041625787946994,1.4082759157350522,-0.397226496439752,1.0
-0.11425914329387157,-0.718924538964751,-0.33975428803993224,0.0
0.23261347264817983,0.1955827426238231,0.4812257579845095,0.0
0.2853610493237863,0.5148662627704805,-0.11030129436058858,0.0
-0.57035156563032,0.13471775374715733,-0.32931869264122776,0.0
-0.7596285474235271,-0.058016272612023634,0.4305116934668777,0.0
0.19555268862067135,0.3357616766584981,-0.3679843565953979,0.0
8.713115816409678,5.337967100969908,-0.8565405601269345,1.0
-8.603929164531204,-3.4926442273990714,9.970460904469206,1.0
1.256682106697088,0.4250262287632491,1.4511009339907643,1.0
-0.531391525172274,0.8607696463127638,-1.332443129830085,1.0
-0.003977348911750397,0.9520950545082222,-0.39556028789314673,0.0
0.13766339560227941,-0.09566559374114823,-0.47434461284715324,1.0
-2.520905055015236,-12.186300434923789,19.454125977779842,1.0
-5.2974719144772955,-3.1772356100773584,-20.249553536258297,1.0
-0.16282944686720982,0.30528900699483386,-0.5370076012574153,0.0
-0.24449947942571632,0.24993054649021904,0.14819277673100514,0.0
-2.6275442615531888,-1.0814635370632926,-0.13966795609802168,1.0
-1.801468975964926,-1.129856843663105,0.5096999013549747,1.0
-0.5495574915643923,0.10399785104068403,0.4966471616770192,0.0
-1.0274970334366893,0.25808488756675835,-0.12064222904685859,0.0
-0.5360190694213808,0.6252245458054312,0.24856023964281046,1.0
-0.9198153115693142,0.44508624227062893,-0.5480815146932148,0.0
0.5913194655664383,0.01668892419873927,1.4032378459218449,1.0
0.15005019761300925,-0.66312544156304,-0.6944864343114548,0.0
-3.550499271568102,7.4666904477923275,-3.1489999586750317,1.0
-6.737081012266727,4.694163460282198,-5.482138439510862,1.0
0.0663413173212251,0.3888416362867001,0.09925333264157861,0.0
0.11668699180917176,0.12973282653904,0.17251471641393917,0.0
-0.27101025054496375,0.23238008986506223,-0.5234246791321788,0.0
5.768486974357664,-8.712019529783005,1.8535034133236452,1.0
0.09121850037804631,-0.14659421995435606,-0.8782999673314779,0.0
1.1590161349888595,3.43238640618225,-11.109153723813245,1.0
-0.001963237676509627,-0.1794983321557405,0.2821897541945343,0.0
1.5446768253945704,1.2451156997143127,-0.12302391467315218,1.0
-0.14026638018218865,0.785363303244879,-0.6618498462495417,1.0
0.14585450490621885,0.1653521518861881,1.3298310655403716,0.0
-0.03297100799875544,-0.23797706020748724,-0.2297320394596715,0.0
-0.2347985275147386,0.15217652711269736,0.952237753592567,0.0
4.265059327756023,6.013975381412121,-5.772229005121242,1.0
0.1445394062749007,0.396854416726513,-0.2413807940505728,0.0
0.6195518227576113,-0.2272751119526001,0.024820312770397986,0.0
12.353611793905948,-11.042352897860983,-2.1633375091243012,1.0
-0.022245843339910268,0.9900708523149515,-0.374914256442599,0.0
0.06835011173690562,0.5307318947915152,0.31261639903585825,0.0
-11.680465591440674,-16.631233536562405,10.008881801372649,1.0
0.9560854645940989,0.5958065984102758,0.004175486387302845,0.0
0.29584889681169,-1.0223821984412,-0.1658514294358265,0.0
-0.7569549487294636,-0.7387534220511426,0.30075793327684736,0.0
0.943946628783228,-1.3404171378474163,0.9184806786449662,1.0
-0.25540928371988897,-0.3189859748622033,0.5155045549685286,1.0
-0.032338014745367676,-0.08993552483503482,1.183905842210644,0.0
0.2642567977973985,0.12237975756651279,0.7752250958840596,0.0
0.25149619524667616,-1.1060550630446524,-0.30212741621640876,0.0
0.9999666347334248,-1.513043271023638,-0.13464432822271352,1.0
0.15702671372596969,-1.121467657843372,-0.5492475908316468,0.0
21.64633705564222,7.381671499419067,-2.6547206717114724,1.0
-1.1207128312456442,1.5848634508533033,-0.7922477568366453,1.0
-0.42754261041177427,0.1581988707930984,0.0314098528557003,0.0
0.5532615306582777,-0.2916385007998921,-0.715671943060637,0.0
-0.3065618759146674,-0.15170857739227814,0.1861227804153369,0.0
-0.1963435361639217,-5.758893232908303,6.0897267089092075,1.0
0.19115638064311333,-0.10538762405804124,-0.5838140456063609,0.0
0.5297469771353751,0.6120219746960317,-1.1726075662426476,0.0
0.08859670325474676,-0.34400307664035906,-1.1494452834575979,1.0
-0.7477616693419299,1.3496921337766175,-0.2824730250919721,1.0
-0.1827924673381016,-0.751476895448278,-0.1446367566448686,0.0
-1.2925967658272213,-0.9490819427058328,9.346249104755138,1.0
0.9724276396850635,0.6305841262591078,0.8981338341358341,1.0
-0.10125305147435135,0.6398717330451574,-0.07248777037078935,0.0
0.8387355527314031,7.571007727703098,10.38487644355881,1.0
0.6904235006524035,-0.2950209773511669,0.9892170863113754,0.0
3.992175023891545,-3.515245447382058,11.837389341404803,1.0
-0.5505370196701803,0.9949155243476294,-0.44015550584496904,1.0
0.5100651470730808,-0.4316314139186495,0.12305949815010082,0.0
0.11762876114265261,0.13307470826251205,-0.47982021005123937,0.0
-3.8459638451948184,2.1815440615600465,-7.236225473194144,1.0
-0.7106032636876082,-0.36145428762828835,-0.1461075592262326,0.0
20.356405305345543,-7.044064163892337,18.304399678221237,1.0
4.921890182524205,-2.048610505779284,0.013802553420591905,1.0
-0.09933122382896603,0.005844638088914316,0.4737450848824456,0.0
0.6848051743876667,0.2289602864468884,0.6122966518327216,0.0
-1.7085696473845078,-0.5035256713155021,2.3243204920549947,1.0
4.321854868587554,8.120232229259342,-6.513294138747259,1.0
-0.23050785020726447,-0.4710016303965157,-0.052023194290901714,0.0
0.6892157330637144,-0.8457780212783547,-0.3089403680797396,0.0
-0.13927754527606795,-0.004109491168992109,0.2671076762950232,0.0
-0.6595085626397789,0.4807569762131634,-0.21998838223078349,0.0
-1.0925735907150365,1.2181187205768605e-06,-0.48016940254958096,0.0
0.641777954048599,-0.20090698855564715,-0.4905253778848095,0.0
0.18271419495640054,-0.2554652802939471,1.1046934690260175,0.0
0.05846421493240077,-0.08902089444734,-0.06328783394465172,0.0
-1.0373774650252359,-0.8766190140691859,-0.20679095581383183,0.0
-8.303169317016943,4.627978178940922,-0.8241246060655499,1.0
1.7873511429335767,3.6378461665897315,-1.2760986582076617,1.0
0.6396391126871359,-0.021573125221091023,0.07270156447677634,0.0
-0.35858491583531854,-0.18623628231812128,0.20401942306745033,0.0
0.11582994211170991,-0.8333490340079601,-0.03350047513623576,0.0
-0.2980019700477437,0.3506685561265797,-0.5512957849531096,0.0
13.393369782094641,27.36918173010266,0.33377591378507715,1.0
0.24183349302835752,0.19512019144823944,0.5551541922756986,0.0
0.8788092783440761,0.2030071695850868,0.029085554608249208,0.0
-0.07280325091375461,-6.543702529275786,-10.151972952033653,1.0
0.31818974680013656,0.6785462722388066,-0.617919412895663,0.0
-0.17559361738400622,-0.27464335538088824,-0.24423053132323672,0.0
-0.34091354099499566,0.04556299224923769,0.32211765275072096,0.0
-1.7292299356939076,11.816610183398588,9.536838036034109,1.0
2.6544764845772812,-8.401807645611342,7.085815568481822,1.0
0.08628953620496983,-0.3083062473255043,0.046814189208388084,0.0
0.5471123587154417,-0.233816963372652,0.46054039169009486,0.0
-6.04966859280451,0.16397169443649573,-6.706337321793683,1.0
0.657955334509962,12.631941145599955,7.152935709328942,1.0
0.33083333647883334,-0.5425437699559772,0.6226358413170232,0.0
-4.00165893373453,7.7773509304657695,-16.237333643161065,1.0
-0.9415716708630507,0.905035281402516,-2.2979525873207334,1.0
0.09738970817827246,0.04272883312711166,0.5332730387805671,0.0
-0.002078215282477008,-0.7793454670937953,-0.04659310354516655,0.0
0.24628652844146273,0.44174510649462734,0.30167014001504705,0.0
0.38000255787364456,0.3842511843319342,-0.24920306947337204,0.0
0.05674887819108139,-0.2762796950111378,0.006638233961741282,0.0
-0.5925129774257515,0.6399463638319635,-0.4186774261852328,0.0
0.24765191480306611,-0.2540922621156324,-0.49309122353231905,1.0
0.13361574351918773,1.1139177994629148,-0.016812490666439656,1.0
-0.11212603729873963,0.2440233297323131,0.13693693750832184,1.0
0.05435797441996816,0.37670584995074824,-0.08708166385522136,0.0
14.543884450505276,5.624873595019027,-4.2460710354600675,1.0
-0.688893485955025,0.060849299470660936,0.316215723934406,0.0
-0.9114861336050724,-1.6745176037753828,0.4804662064787506,1.0
-0.9228623907723157,-1.0219352771271413,-1.551266259002357,0.0
-0.197612223766007,-0.10087623889383684,0.35850038354526914,0.0
0.29889381382676894,0.4763198508231634,0.14883698478414703,1.0
-0.661336684408312,-0.13159630891168,-0.7492497338245188,0.0
-0.6518179170323192,-0.0016534816005876214,-0.187056903679682,0.0
0.7361653789100349,-0.049448276845736695,1.0747953260305452,1.0
-1.983905451404048,-0.9538923429868144,-1.2309300455489907,1.0
0.7329808046179589,-1.099372025090228,-0.37278483511893346,1.0
4.206600898393556,16.72491404913128,5.452960943847904,1.0
1.494222019902757,-0.2456266463265771,0.3370883857519718,1.0
-0.07580382959136536,-2.0805007310296957,-0.40076431998729184,1.0
-20.402639075981202,-6.9261830555337935,-4.782544999314384,1.0
-10.352378935748527,-0.3791765957547199,9.761537664055323,1.0
-0.6016244948275332,0.07197598647456922,-0.49230090489919864,1.0
0.5278446143914215,-0.5450671026786112,-0.4347957384001282,0.0
0.2855904062653739,0.5820245164153295,0.16714559432255183,0.0
-0.228251234607855,0.5076826972077816,0.25240841252856955,0.0
-7.016977834738948,-5.117366296389943,-4.779743663077615,1.0
0.1401159823111346,1.0598431214894664,-0.17727665757443112,0.0
-0.8488469376223972,-0.8400718433205607,-0.6113596736826475,1.0
2.047296212614691,-0.7060751540106787,1.3037824375494025,1.0
-0.05944671253379052,0.6714575918448881,0.21429595904148468,0.0
-0.44216937933563283,-0.25945572800271016,-0.6376482348029311,1.0
1.0750417567320323,-0.9147703430768103,0.650902607371906,1.0
-0.0035501426186790317,0.5242118930957788,1.4910410459913475,1.0
0.5678811603805293,-0.20956913272710756,0.1423804297288695,1.0
-0.5078236193390357,2.138470047021784,-0.5602129308768596,1.0
-0.731609545242644,0.4840467921951247,0.43728445931034604,0.0
-0.1131425366775443,0.08452293824526222,0.37161915135873375,0.0
0.0822197618746277,-0.07009069020124134,0.38413992839485517,0.0
-5.622732685845078,-12.626201973316295,15.05066602132212,1.0
-0.04293183265517057,-1.7164185850760258,-1.0195411082111967,1.0
1.2562445487511757,-0.1476099285787389,-0.47502753029402595,1.0
0.05769889401412318,-0.10980582043494545,-0.6271006055838616,0.0
-1.19659810119603,11.095658213034742,-2.0357733044791932,1.0
-3.5200238073243413,-17.33442022108527,-9.956186472546605,1.0
2.3580562012689046,-0.38644403927213905,2.4235678946437487,1.0
0.16619770371090503,0.14988251958815804,0.5309009036433777,0.0
0.4253326572263789,-0.2403837062626427,-0.44432297074078025,0.0
1.5285290318561262,-0.7075708923573669,0.8792742003841013,1.0
-22.05930741350103,-2.986995542817918,-17.48570013405433,1.0
-5.076122995448465,16.128540402231856,17.012290278824082,1.0
0.054414159155105814,-0.5294848773295042,-0.21404106647145596,0.0
-1.035436393393856,-0.029970611809743773,2.060319759992008,1.0
-0.6046734550510461,0.2852152474187993,0.6500744005071305,1.0
-0.43274401428648135,0.2900275016298442,-1.2514336743655405,1.0
0.2778747791276182,0.37183600057021426,0.15015522837685386,0.0
-0.08577080106137894,0.21699639823582612,0.4515412169989207,0.0
-10.14966942225638,-9.290006819491671,-3.5980436724567664,1.0
0.9592860569527178,-0.48066999772944463,0.9419731439082037,1.0
-0.7367141104941258,1.2266449530469647,0.2684965979273254,0.0
-1.1023668686635952,1.1305581811211622,1.6326269564107012,1.0
-0.4981931603640245,0.07999678405091551,0.20308802431677572,0.0
-0.12152211992515544,0.6926931222282064,-0.2990774607386992,0.0
-6.298372120991437,16.57389153244657,10.452721803441456,1.0
-0.4089938247370716,0.6702341897471396,1.0405227829138382,0.0
-0.010304480344337502,-0.04669125552685852,-0.22734500686697764,0.0
0.5534637960011195,-0.8499050023123812,0.23394207946081996,1.0
-0.1430022429711839,-0.5163386633366663,0.6537635857464812,0.0
0.22832005796006874,-0.13502308649609743,0.16834872071300144,0.0
9.974683532712847,6.961963739279296,-7.918275791338674,1.0
-0.030219614423392428,-1.1025409706145852,2.0041245211540493,1.0
-16.30544011148455,17.585121254881205,13.473229055595883,1.0
0.6652222973587105,-0.6304911675231015,1.7157958757769733,0.0
-0.4803665918637433,0.2943903273659106,-0.6756681808858966,0.0
0.4199797563993634,-0.31288472980467125,-0.06306866051832961,0.0
0.4972686189197505,-1.1893251149783473,-0.11964695730119602,0.0
-4.356062647208767,4.813320583241192,-26.991862067614587,1.0
-0.13664004494318752,0.7787820247546676,0.49122715307625164,0.0
-6.531950947771015,-8.99740319152161,-3.159621513012618,1.0
-6.506788849685021,-8.16102539513545,-6.202871277757922,1.0
0.24361858072564227,-0.02422689275100758,0.4653222270655421,0.0
0.23210523744867267,0.1262371441305414,-0.36113553573782337,0.0
-0.07468609529400276,0.37793017172958226,0.36227344953612645,0.0
-0.3072453623543761,-1.7938042766496973,-1.1400086765414252,1.0
-0.2785235664489958,-0.28311725065932014,0.13997331599848026,0.0
-8.98013980548199,-3.7197499695605734,10.084159581748068,1.0
-0.7020936814992224,-0.4539667801232181,0.0693785824597965,0.0
0.48251638600236124,0.6411345644883284,0.27173456310072636,1.0
0.5613312579837658,-0.5780797455314322,0.35530526937933843,0.0
-0.17438454990829794,-0.41849110403879597,-0.03719979097081976,0.0
-3.0161354338027624,-0.08031567298342013,-1.6508624232074876,1.0
-0.6484371510330461,-0.09341760015268369,-0.20234197417580368,0.0
-0.1676603222279276,1.278917449863862,-0.6862306207975398,0.0
-0.15990432032995763,-0.17381788861828656,0.2979164347853756,0.0
0.5978748752403218,-0.7246345489414573,-0.5682868082403543,0.0
-0.334430767440588,-0.3572834843989118,-0.1909461175733671,0.0
-4.668775607670995,3.295724336725412,-0.46323613400450436,1.0
-0.1686476115608539,0.6607318318057313,0.6860535224649321,1.0
0.8265263539009455,0.2796118267883478,-0.4027739410030162,1.0
-0.23703751061806466,0.01653014362797883,0.5813681327871015,0.0
10.14019556542819,4.180162142609117,-31.36508536104266,1.0
0.04546154719453014,-0.18029887152841087,-0.6386007910717835,0.0
0.47155625341729857,0.44835852672460313,0.651910178166729,0.0
-4.366357083410525,-18.986273540739596,-12.475562566331764,1.0
3.7047152115307425,15.659575888178576,-1.4214131278853628,1.0
-7.031388343904471,-25.73320320874803,-13.386362369951975,1.0
-18.07218665517889,16.631574799778473,-4.154689601072887,1.0
0.49268572415375866,0.3138898769177746,0.16870907115184586,0.0
0.5095532572308759,0.5539482131328002,-0.7174510189182941,1.0
-0.9290027531996886,-6.627277315842006,3.6808831189169773,1.0
-8.575866489158905,5.357962047238778,13.898197419550042,1.0
0.7289637539720282,0.09367293385515237,-0.2783048498712446,0.0
0.7078576401471441,1.555240528390005,0.024156656946254868,0.0
-6.1206770814843665,-16.011369161964048,-11.011016446968407,1.0
-0.6722690862721388,0.6319964785768392,-0.19372828142661713,0.0
12.632114789157239,5.72680730885141,-3.821215171427799,1.0
-0.43771492959781516,0.7974873114175601,-0.20513792991152047,0.0
-0.36447354232949225,0.7131239820754036,-0.1278427674474301,0.0
-0.07760688149980127,-0.6051013637363292,0.09111071171424191,0.0
0.9367116226058763,0.3472305509752161,0.15829978900478536,0.0
-0.14019679172049315,-0.9599543958682977,-0.6633874997499496,1.0
-0.12362235132548623,0.04810150635276735,-0.18079380093389938,1.0
1.3916785883590561,-0.2278303493161508,1.0072619659412052,1.0
0.6886637898157546,0.2207094604188167,1.3577280728806072,1.0
0.3908168063282263,1.3732386511626746,-0.041986516230159227,1.0
0.4871806557427415,-0.06796092754048005,0.11529131603289229,0.0
1.4981937172534385,-0.32955329459020194,0.8080562408382388,0.0
-0.09436681031224098,0.14591750270134052,0.8117315512623411,0.0
-0.14467125736543462,-0.10061885338047148,-0.022362856750107813,0.0
0.43439584479880144,-0.08968911575695755,0.7144806566634844,0.0
-0.02004443000067516,0.23417314753910332,0.8398856602598214,0.0
-0.49721430065005834,0.6147570671681151,2.1738336104439298,1.0
9.581868757832279,6.827212948521123,-3.493811470765369,1.0
-0.5481292273666136,1.1755007564004398,0.1468042103639853,0.0
-16.144268983893323,1.1009406170601952,-17.48776515017467,1.0
0.7849345273667809,-0.21733463904977887,1.5901059240531275,1.0
-0.4284198671017664,-0.5026918667457773,-0.7563298957949448,1.0
-0.24565464339075602,-0.17207047934495934,-0.1218723736799523,0.0
-0.5356049672154053,0.5802255079213817,-1.1087763260345633,1.0
-0.06660398390289085,-0.49129220846082483,-0.20406266519015678,0.0
-0.42731540947471663,0.6317485361715599,0.15602973542685894,1.0
-0.06892154242104759,0.23043694732862569,-0.20717744497599233,0.0
-0.2855563557566497,0.3424021860065896,0.7924479386822615,0.0
1.5289393437363277,8.570484753702063,2.9656625752200756,1.0
-0.9077982908327527,-0.5066453994667509,-0.20334733450155013,0.0
0.6221216457533393,0.4711485728343452,-0.19356018480119203,0.0
17.33892091439393,-3.5594675127166022,2.0050229195553646,1.0
0.0640161738518367,0.5112594850657338,0.2371727290841036,0.0
-0.05105358487286533,0.28389389892475453,-0.8463172906706798,0.0
0.5321492392603866,-0.24709388893035383,-0.4733622969389243,0.0
-0.1440638561539227,-0.7034948190923694,0.4745025534049865,0.0
0.22560580827022692,-0.08963952245939487,0.19939603691332602,0.0
-15.343472368518722,-5.3431414918179385,-24.494427572324714,1.0
-0.6780105620287379,0.026521695350351007,0.6099176645648409,0.0
13.127796150781446,6.852797880674211,4.1490240281321515,1.0
4.763181457540969,10.480491035390504,1.2555516425750524,1.0
-0.18299094401383822,0.34482796015008815,0.2086306191319386,0.0
0.27869220183407983,-0.353981816642604,-0.4106370259941735,0.0
0.38278600086483866,0.3236351608432542,0.3156895845697778,0.0
0.48790119616779215,2.9530064921717476,1.9648662138004183,1.0
-0.36821987998931494,1.1844744156582696,-0.0031240914180678306,1.0
16.773205972958397,-13.587842963626116,-8.69049071130724,1.0
-0.5642675314319833,0.14762314982269187,1.274174585515753,1.0
-0.6891684484363859,-3.7859562411208216,-8.385763399759314,1.0
-0.7768820922717383,-0.9248915506485579,0.4507832604302595,1.0
-0.6033996156585096,0.4073017000528142,0.9116327795336565,1.0
-0.5308487102321464,0.3513519987770268,0.4822411263996827,0.0
0.5406121277416363,0.21440504714900394,-0.64378768158426,0.0
8.791316578944418,-10.311602804360177,13.981075413756344,1.0
-4.893799884383563,5.7221871712513375,0.9917788557051445,1.0
0.03893635252788661,-1.2614621168898057,-0.3569706691526135,0.0
0.5471118220289357,0.002712223665058068,-0.14016112898227093,1.0
-15.008210076132256,6.434774090863824,-2.909692570033688,1.0
-6.835776201876982,2.467180273854698,10.846212048573387,1.0
-0.8385041235023202,-0.2743748122262734,0.5122565059472334,1.0
-0.2957957611508622,0.31195973640892055,0.02691390497288267,0.0
2.5599081343933436,0.439603078463277,-0.4620097176938066,1.0
5.677800664027318,-8.587303981991472,-11.371329514586204,1.0
-5.088941385259053,4.926411024124901,14.943603666020042,1.0
1.9733559193213253,-0.2922657113221735,0.055232978446383196,1.0
-0.3395216000211545,-0.765324164938254,-1.1844736415418244,1.0
0.2691167362407635,-0.3249841743782699,-0.18896317247388456,0.0
-23.186869689142604,-0.2712978815557749,11.529011699376596,1.0
-0.8457183610080109,3.309376790383469,-4.343210162148702,1.0
-0.1570340899366532,-0.5800886077012625,-0.04120309131193614,0.0
-0.14953834053138235,-0.19742236551562395,-0.1588606918281873,0.0
1.3111099115159452,-12.475900260296655,15.868380752700356,1.0
6.215768759838689,-2.0466108562977054,-11.015566674763724,1.0
-0.2074483696228573,0.12136515411714341,-0.39350114336251435,1.0
0.4078969098552804,0.46986927690205743,-0.0676830891113585,0.0
-0.9174541566348607,-1.7350236037668993,-0.18050212576880448,1.0
0.8686712308441361,0.8912036447555388,0.03590245683954039,1.0
-0.13230855761453506,-0.3090562675805461,-1.9234614497662532,1.0
0.6495041271621179,-0.5647432186317762,0.26583744816332383,0.0
-1.6136868376527074,1.893299410272038,0.31378265692918483,1.0
1.1168484827091334,-0.4395363622710013,0.09692123100153638,1.0
0.4670389518487196,-0.7255563920115979,0.35687511021589235,0.0
0.27748332695174827,-0.30248323405003225,0.7922547517708826,0.0
0.2166858803457784,0.5204418099329898,0.18917177358804443,0.0
6.348575051359219,-8.786141544247512,14.645021477021283,1.0
0.4737801532103495,-0.3443454233201848,0.7655413913194027,0.0
0.032312140356023714,-0.47500690760619957,-0.413034018381034,0.0
-0.4378554967732188,-0.3130460288003828,0.3549610726702646,0.0
4.8036226829692055,-13.439369078199386,-2.2861540663841313,1.0
-0.3397249981575849,-0.3011858005712653,0.30639891130762753,0.0
-0.8649320289399388,0.1272802487797874,0.3189320086131491,0.0
-20.527578952664683,-6.828387594527699,-3.609402517783633,1.0
-0.3372057176216916,-0.41887004922060705,-0.11610528150211197,0.0
-2.823405335391102,-2.0537035676462305,-0.02142180158628184,1.0
0.04562426452942916,0.5499431550152032,-0.11272611164506374,0.0
-0.36553811520606694,0.11137950774961969,-2.5647721892797235,1.0
-0.11113534392978153,-0.7050002749579712,-0.19834668448411577,1.0
0.19817857189704874,-0.6731261920893543,-0.5392618445184776,0.0
0.18541436923991686,0.2126884650238249,-0.5889046225366992,1.0
0.08117211446977711,0.2916986832072967,-0.28638717642337663,0.0
-0.4017021233042783,-0.6389050370836831,-0.06971325798805242,0.0
-11.539813807666551,2.16846168689736,2.2495360002947016,1.0
-0.0625318305140135,-0.1495717008559628,0.3950231537784553,0.0
-19.2608665383707,12.0389530592119,-7.990251369534501,1.0
-0.08043302040804645,-0.4148184986196141,0.3632680565894234,0.0
-1.1277367747680518,-0.42675846128293154,0.28088143201611354,1.0
0.2364934253687259,0.09218120029074982,0.3455307659715342,0.0
0.26298448837212524,-0.2559847168510379,0.195001702251845,0.0
-1.6121711378899943,-0.26083151290158746,0.43914627286825386,0.0
-0.016929635587036272,-0.49457477602005995,-1.1073001331042056,0.0
0.38150082744780284,0.19974985962162659,-0.2100884921465182,0.0
-0.2944106113763828,-0.559591952653191,-0.9714168362416036,0.0
-0.7567355412563321,-0.15201836157735282,-0.5030748316382905,1.0
0.3778930063165412,-0.4314776209445029,0.9392678660399977,0.0
1.0131970974822184,-0.019126525493740137,-0.8538089820146352,0.0
-17.293527855489096,17.091728307501114,-6.635550761176509,1.0
-0.5989964378660964,0.956336994499203,-0.14211124962545293,0.0
-0.8544091051311552,-0.5041147964372438,-0.13146840553181416,0.0
0.2219214617321832,0.050203744173444045,0.20453817592185944,0.0
-0.5118957235668163,0.007175671731400128,0.8194511932829498,0.0
0.9226815011899643,0.8676509802206592,2.643322323724579,1.0
-1.52318167952574,-2.1629229364851184,7.206238900851231,1.0
0.2679729478848504,0.39952791356529777,0.0025562152233456637,0.0
-1.716453793582238,-0.3224611796580952,-1.5301106923717813,1.0
-0.7747124414309445,-3.021431098771692,6.314989135301785,1.0
0.4577747227825915,-0.701460027531507,-0.5703042782248322,1.0
0.9728391016148867,0.7433547656009141,-0.5965985534072632,0.0
0.38421407246798606,0.42874842211023007,-0.1173542543988807,0.0
0.14757266203791533,0.03539032905167301,-0.20829691088121718,0.0
0.12105809992540668,0.41161382017786907,0.3878717331325979,0.0
-0.6421257869773344,-0.7141764058709373,0.936121758970449,1.0
-9.180392374523299,-28.112554530991176,6.455602684837164,1.0
-7.242092391084618,7.117786905999617,10.985171339261884,1.0
0.025342721135952068,0.05912719735249597,0.3667159590629116,0.0
1.8410872680031611,0.21658796644189865,-0.257346981684314,1.0
0.05926591114166249,-0.05641953583009772,-0.08930827451913387,0.0
0.34758277722500236,0.9700469308601606,-0.6846319165914807,0.0
0.016386378446352292,-0.5930704872800929,-0.5276484425794629,1.0
-0.32588415830833,-0.18412535179167433,0.1046728704779924,0.0
-0.910679025285582,-2.166715374916491,-0.0813648951699264,1.0
-13.27195373207611,11.153166900111218,-3.51700972633809,1.0
-0.8117573985064762,0.04748848771868558,0.3334149552912973,0.0
-0.466044409958433,0.0603193903631915,-0.22048631255887763,0.0
21.99669047971453,-5.963618961493962,5.583472716696306,1.0
0.10802683942905954,0.09101666929494186,-0.6137195070761127,0.0
-0.3382057689598255,0.4056934986939776,-0.10803626569068611,0.0
8.593422608596896,-17.3809725195738,1.737938721243188,1.0
0.029679836303707543,0.4625147367760405,-1.3018148452464353,1.0
0.35498052870763713,0.6729019234353136,0.13860823465455874,0.0
-9.44861504411443,13.688006973039624,12.649333790862801,1.0
-0.12357320943150413,-0.11620038547986908,0.00700224871602226,0.0
-8.282713973232745,-12.296028494202062,3.727278184035803,1.0
0.4236053907987019,-0.13169461018623826,-0.1719155629568536,0.0
-0.02131557490604461,16.27185983002787,7.9755463890009395,1.0
-1.4430382604889578,-0.8455017357573021,1.3622765746182708,1.0
-0.28742746367258865,0.10070703586861293,0.28662428162217085,0.0
-1.0897092058168198,0.08910261028264306,-0.26950524929895575,0.0
0.12178522249852056,0.7081212117839469,-0.7372618470711121,1.0
-0.9247917963117507,-1.0050113503862361,-0.32685752474909824,1.0
0.373600440633358,-0.18631795301733875,0.5791450517689877,1.0
-0.23165854509891118,-0.3363784033451153,-0.5167113418758444,0.0
0.1699919836214338,0.8966113170957318,0.8658205822019348,1.0
0.1128957641174508,-0.9240192008552089,-0.3454485918471225,0.0
0.7098599301249326,0.4907591284251327,0.19803687635690634,1.0
-8.83235727348785,-1.2273933880688614,-20.002150991809913,1.0
-0.003437403806148786,0.4085699894983581,-0.17364680271372007,1.0
-0.18475758897126174,-0.02250693102076874,0.0030013478183058273,0.0
-0.23131930799479597,0.15853979440818178,-0.33043120680748433,0.0
0.9441883102511246,0.6584109879781056,0.7868088876209052,0.0
-0.7613263026044466,-0.7959781793988406,0.2860887462647654,0.0
-1.0989859808523639,0.7708250016958463,0.14162912135875297,1.0
0.764633758367656,0.6400864512636287,1.0614489379487713,0.0
4.392653257255423,-12.366723074459784,8.199548109001029,1.0
-0.21850546624776682,0.1476001004972088,-0.846912192196424,0.0
0.5093390896555694,0.06902113086948272,-0.16055302996585014,0.0
0.43626083232856183,1.9611840436949266,1.7958061348356003,1.0
-0.5803470003997145,0.43752004491567603,-1.1550039710192934,1.0
0.1572397696892895,0.27985063626753215,0.2007229725406437,0.0
-0.4272796224678167,-0.48931053446845046,-0.19580930688726725,0.0
0.8621457886174736,-0.3173470772589409,0.017975660313605125,0.0
0.6206110838082383,0.7082418381757957,-0.1911581139319609,0.0
0.4971290976674403,-0.5553858522372493,-0.5169842310242663,1.0
-0.6895243538791435,0.7649054496117934,-0.27111404447322957,1.0
-0.9670742354710087,1.0265810181992374,0.8311972765796117,1.0
0.2705330526625716,9.473550441954528,-20.707383005579928,1.0
-0.2972318239718432,0.3728312980156534,0.7251551920025096,0.0
0.376746646723715,-0.26116366495217386,-0.33642318526789894,0.0
1.0894635858156476,-0.6594261629282632,-0.4762777711121221,0.0
0.15184374618398438,0.27619698165803097,-0.4494705481498084,0.0
0.21545381960636795,0.5654315781874886,-0.21988416648084036,0.0
-8.383775842343574,12.616418246765182,0.18490498978297643,1.0
0.6173719589830999,0.5777175277227413,0.2162222338540918,0.0
-2.8191290495435988,-0.3472495997894294,0.5632132926296921,1.0
-0.2854856867333815,0.15572988449943861,0.26630310714263966,0.0
-12.60114203114396,-8.634728368510675,-12.07847603904945,1.0
-2.3967289597750456,0.6133634809448186,-0.4694763821174427,1.0
0.10808410236562069,-0.3848874189625374,0.6424767394079914,0.0
6.862388028838838,-3.2054975639397765,-1.1682078406086824,1.0
-0.8973017780358237,-0.8813046288756742,-1.251782168814734,1.0
0.08199128184434978,0.6603560343379667,0.21204941052878531,0.0
0.6876184675299947,-0.10108898793844262,0.10333896377220099,1.0
-1.7686851938774788,-0.47483491327642585,0.7444586431578707,1.0
0.8399779411067929,2.140909918894654,0.8159302053785406,1.0
0.02454592330409121,0.4139733295680807,0.010770191998681195,0.0
-1.0875189201579754,-1.5241033154797095,-0.07371347315973308,1.0
0.5334526398327168,0.18669587402440568,1.7308839030154974,1.0
0.2588651251630347,-0.4561766749138188,0.07914841976305226,0.0
