gyro_x,gyro_y,gyro_z,label
0.2505443478819581,-0.7832422156061113,0.21130532257297993,1.0
0.41461175458499494,0.15828882856129436,0.5727524982887833,1.0
-0.647720146022027,-0.32053648780653426,0.2287567213064335,1.0
-0.06394068890416867,-0.05754312295122264,-0.09154482754923923,1.0
-0.17579371765645185,-0.9055577307100604,-0.07151971257692341,0.0
-0.8495635914791799,1.4342311691250758,-0.07702702820142027,0.0
-1.2664492221184642,-0.9025962006915675,-0.3267163314010298,0.0
1.6983414167040474,0.5226226830123356,0.9734369869853051,0.0
0.10834298932336615,0.3183222644807077,-0.036062566661546655,1.0
0.11437681536714886,0.0774811077657522,0.33661571206711594,1.0
-0.2862933018987287,-0.024803849780650533,1.5222930389357199,0.0
-0.5571898358803197,-0.9374206195998409,-0.18569810097510875,1.0
0.11807146467986866,0.11800705292256743,-0.006852172307261872,1.0
0.49451047052281905,1.3967275624489761,0.9399094876296885,0.0
-0.03293483244088025,-0.005201151732634069,-0.13621749585299223,1.0
0.8781771216708869,0.548662219214361,1.647217436817184,0.0
0.14516400381379674,-0.03406965380679965,0.01124781877016537,1.0
0.029395700270273547,-0.1594667494547875,-0.08396633067140596,1.0
-0.10733251006321283,-0.024330628080969734,0.12094249946987921,1.0
-0.16336642514388838,-0.3190868334039523,0.06910164266178905,1.0
-0.5712500306502185,0.09143513963522587,-1.2368452097223475,0.0
0.09373590957332344,-0.016653906363460532,-0.025254041036124455,1.0
-0.7981798153939592,-0.11807972469627159,0.3904998975328833,0.0
1.0859614366667807,-0.35843380794984925,-0.22276884854431928,0.0
-0.25282098446477075,0.9556935018217247,-0.3853337399306268,0.0
0.014388125171663657,0.9432656629280117,0.703082497639987,0.0
-0.025069507029947393,-0.07688451677940727,-0.00775558472869759,1.0
-0.23442437446392084,0.5109873946978276,0.6890253149914396,0.0
22.894353519245882,20.36146792746231,17.31660651699864,1.0
0.19371469036387598,0.41521957907018314,-0.1555753788855778,1.0
-0.13455241280931945,-0.028638616312248562,0.0455621156419419,1.0
1.3332481204291793,1.0816879485894106,1.2121504588707999,0.0
-0.589168024181792,-1.1027371270167665,-1.191269314451678,0.0
-1.1465164080373917,-0.6708031974236781,-0.4354821141630304,0.0
-0.5041213091862479,-0.14917292255676073,-1.529662497742001,0.0
0.9415452136007055,0.6273500019678897,0.30843888142007164,0.0
1.8950699149653647,-0.16501302583667382,0.06928017278079626,0.0
0.08316533729202458,0.7622298198704469,-0.3942815333317705,0.0
-0.6190839177723491,0.7312954853202493,-0.458255461179643,0.0
-1.0247787235724466,-1.3707455112762625,-1.2804265476122971,0.0
-0.2725086579842334,0.9136081991355719,1.3513157539982288,0.0
1.0173911323377631,-0.25759746887054513,0.7120353044362686,0.0
-1.6759524333995992,-0.6297128376571565,-0.2343483441140285,0.0
0.46821120619589135,-0.009114951955918184,0.2840446733099978,1.0
20.697420833878102,16.14599543708413,21.527768614639665,1.0
0.9196975622033007,0.20329957693012712,-0.2966272309985852,1.0
-0.002577612809908281,-0.07467874039236165,-0.010560120239281377,1.0
11.999799320446428,19.89971570306713,19.096168703553715,1.0
-1.0005643448061776,-0.23665627987304771,-0.9318430795026893,0.0
0.3508967137676095,0.22934523235631027,0.465493943202005,0.0
-0.952324644551344,-0.07380554762366939,-0.8563248017856115,0.0
-0.20807497207603287,-0.016258240804392997,0.1356390342065953,1.0
-0.06252780553893086,0.6975992804819524,-0.10619375422064414,1.0
0.20046068320132374,0.6346218694312588,0.13074017074816788,1.0
-0.10288326087340471,-0.01632589912688131,-0.13566213389672716,1.0
0.4305064310622723,1.4294657469551058,0.5260760015767005,0.0
-0.7410888025862219,-1.4822067777169858,-0.9669634060883859,0.0
-0.0202653671439795,-0.15373557005611005,0.0021610241644150455,1.0
-0.2584604139321884,-0.900385717176309,-0.5017184872434212,1.0
0.06567939777344838,0.14641038094558595,0.715033120488626,1.0
-0.1418589402552445,0.05402953550366229,0.026814052494563125,1.0
0.6937581357245008,-0.4669215273346798,-0.4425591287251497,1.0
1.3591857070672981,0.029288433791119062,-0.4932350593038186,0.0
-0.3653401144632943,0.06652559052972218,-0.011486275592806683,1.0
0.04452067779777757,0.022412571312469248,-0.0654819563140273,1.0
0.5185347511676751,-0.3713536155091638,0.3529551873567169,1.0
-0.06860884726116755,-0.8186319851103595,-0.811448790713842,0.0
0.06400300260466019,-0.07243454897393754,-0.0035192395692756197,1.0
-0.12625000992182164,-0.012884058855141246,0.10018273173062671,1.0
-0.13845502236665339,-0.11065312588620435,0.0009439584619928145,1.0
0.11823660708836524,-0.939820137826286,-0.17429942722371033,0.0
0.062045057871429644,-0.03552477555173229,-0.0271205083144992,1.0
0.7936010657878843,1.008091955140718,0.908259100293062,0.0
-0.4328405762013221,-0.6748241234450629,-0.047963122966549476,1.0
0.02480905250488046,-0.0546013592778081,0.11219779961543963,1.0
1.5413856971207904,1.2071098636935786,1.8871518611905016,0.0
0.1009308798655654,-0.08865869464654588,0.012201539470973233,1.0
-0.49019450714092705,0.48108421905826226,0.22015595500377122,1.0
-0.8467012665906364,-0.6412538914303394,-1.7834143061996832,0.0
0.5449384849705599,-0.2474559925063643,-0.1365805102074965,0.0
-0.19932718011823045,0.11836065617014764,0.0028249584065650315,1.0
-0.3003453861031015,-2.1233706381992747,-1.1431662628333952,0.0
0.7987624823754609,1.6542808262386666,0.19913562780842123,0.0
0.28095147777829865,-0.4408687212605036,0.20011007185205454,0.0
1.1511513113120817,0.12063953518060372,1.5672232432327662,0.0
0.7010274882889338,0.4604470177975348,0.371974031451996,0.0
0.22082051979938241,-0.7659543169789507,-0.3224943879354397,0.0
-0.18136658948520804,0.2709103550031196,0.20004906250003113,1.0
0.2926800572440986,0.3664406875140208,0.24960488649784218,0.0
18.883353575131125,15.187007116519815,15.969342437973244,1.0
17.853029008290846,17.896805493295346,13.352237438543924,1.0
19.44315103687998,17.99089552818178,24.01175895933713,1.0
0.114935044461148,-0.1378960096228645,-0.028206022856614936,1.0
0.7885013799434644,-0.44018787818868815,0.8303810371397076,0.0
0.5163707069189565,1.470757437936037,1.5036770954411898,0.0
-0.45537663174856513,0.08261529385273793,0.2180896643050141,1.0
-2.0824221855122254,0.5489235855619947,-0.7768946383349922,0.0
0.7057477586888372,0.07671134796345798,0.17267744839310542,1.0
0.4343745607334024,0.10169704046356076,0.6604700316355134,1.0
0.6965624117518248,0.0048633527361587325,0.9666143575149435,0.0
-0.03525665099488551,-1.0348807034213294,-0.963539376421095,0.0
0.10363813976908419,0.2635437334757507,-1.0589917507719746,1.0
-0.41451048287945014,1.4927679560973797,0.04748354946215705,0.0
-0.37176268427032066,-0.23355232005944696,-0.026545865460700143,1.0
0.7095902984401423,0.47379992533845383,-0.16911910711596975,1.0
-1.6094843418990175,0.5743368973158356,-1.160575423263454,0.0
1.3874591944294723,0.4742073451793071,1.1190464826386761,0.0
0.7594079385875407,-0.9872158800398884,-0.9470941115896747,0.0
-0.21672036526099847,1.1140891755106201,0.37631708310664325,0.0
-0.16077417212388778,0.09065753283724905,0.021214949953772745,1.0
0.42499446656472695,1.822822219357581,1.2942046137495589,0.0
1.2417147115350695,-0.051555752748199846,0.9465158428605633,0.0
17.25765365772122,16.912053590420143,17.736505914828633,1.0
23.7932973233629,20.38511318835479,16.116078550928336,1.0
0.7923324841672341,0.23918669836841788,2.2590793657661488,0.0
1.278888284310265,0.9368391910282241,0.5652475203501823,0.0
-0.19413693036536833,-0.9702351818352656,-0.6230413718369558,0.0
0.08719541798062788,0.06770991157716531,0.016864371247023637,1.0
0.08156216902828511,0.06882838169926664,0.9704795594822748,0.0
-0.00310927243983139,2.46640621450351,0.40857876387248926,0.0
-0.15816823859496545,0.1147874521977989,0.021690392771989076,1.0
-0.056003092453741465,0.13390982991084854,-0.079433258990122,1.0
-0.6635452595748174,-0.5360270448069382,-0.6955462983460691,1.0
0.9295765660502855,0.4965709334787505,1.2480536414458974,0.0
0.9241075297438468,-0.30015556347759115,0.19613644719328555,0.0
0.0067552257950218575,-0.49331502803690086,0.6915874973238949,0.0
0.8882515890951949,-0.2832381426939849,0.22246340345592172,1.0
0.007839812654509396,-0.15015287126126478,0.06655260214906149,1.0
-0.8006013857904968,1.2131389649436621,-0.2372676276401199,1.0
0.8904237899190488,0.1873913964967844,0.20173301208143257,0.0
1.0704115101919776,-1.0187212141413595,-1.3820283444466508,0.0
-0.3816908739709087,0.33491755847293053,-0.7243284816128855,1.0
0.49637843162582357,-1.4401179155824897,-0.728275681657371,0.0
-0.994236101708887,-0.8518830229530874,-1.2490568271979274,0.0
0.05040557775050034,-0.10238665068278462,-0.23977338290317918,1.0
0.41024841927315586,-0.5798355350871548,0.22202185593929122,1.0
1.5969376571826395,-0.08343482633619731,1.0804831910617487,0.0
-0.9087845803489187,0.7339734794548093,-0.18844700693230831,1.0
0.34952524716106376,-0.43048828176175785,-1.0326633688953686,1.0
14.604099651121718,19.401603596105925,21.860954205200553,1.0
-0.29184920089490374,0.8927589068813219,-0.2620235709672173,1.0
0.1523473744388602,0.2450391332384184,0.022589359794716428,1.0
-0.10970078339775602,1.0360006674413453,-0.11802913453883815,0.0
-0.16379089001823002,0.08140689701383734,0.07783222001648733,1.0
-0.5778522529731738,-0.03791007605205626,0.9830728879790193,0.0
0.167990372995523,0.0634397162274901,0.3917140920271608,1.0
0.030339268778993296,0.05579264283588117,0.05566002887050665,1.0
-1.068148261846071,-1.260073409553141,-0.7632683216252032,0.0
0.14482646398179,0.8717257694828587,0.23586378496259983,0.0
0.21454262202198685,1.234241976026277,1.7283056660391214,0.0
0.7930912230876941,0.0009450490924501134,-0.06847003375831678,0.0
-1.1988992628757824,-0.08301566713885034,-1.6780846338883002,0.0
-0.3423977360267215,-1.8017110116451622,-1.0477657659677067,0.0
0.009021938877355624,-0.06109605326008342,0.06149634367453555,1.0
1.1129573776111192,-1.0302422597907483,0.32966514406075154,0.0
0.5842760804735327,-0.31031870203360856,0.47246563127944646,0.0
-0.12483813605462553,0.03791971979918747,-0.09782854820414617,1.0
-0.20560352419486969,0.17938451680459233,0.0664087110913631,1.0
-0.09560861545428077,0.18898852048157744,0.07561835111765225,1.0
-0.8736562171451643,-0.33859829249370654,-2.2786211962133223,0.0
-0.27468374331520334,-0.6872417100497666,-0.9698143781119206,0.0
-0.5762493708921541,-1.102859351678764,-1.3389202525802213,0.0
1.1896840458926699,-0.08563837878379045,0.29194226424084685,1.0
0.6908916183337096,-0.4113198840010461,0.8459362620807782,0.0
0.21030577047750823,0.20487213071258314,0.14307763586714664,1.0
0.6142575220817197,0.7059308793027211,0.40564706140193085,1.0
18.691111123301734,20.124509830904625,19.49208632879222,1.0
1.3742724469756262,-0.47231736972932375,-0.9403342428973802,0.0
1.0754079529802563,-0.15988496656368573,1.0026862402952421,0.0
-0.08515529127097632,-0.02058404804176948,-0.2989946842080893,1.0
1.57914963221164,-1.1004586045770508,-0.21736125322414365,0.0
0.017514611550567206,-0.06569053073020441,0.1903730324989424,1.0
0.5038306646011275,0.2340044789987047,-0.23364836469214167,0.0
-0.1299738992017679,0.4075178808907807,-0.39023183393069494,1.0
-0.3199850539804172,0.7626930111479375,1.7374532285479398,0.0
0.21085078400349438,-0.5742777865517286,0.6545812090994341,1.0
0.0505037900977553,0.8626916575292818,0.5413001422146675,0.0
0.3224851270836322,0.6219372950754224,-0.23287091710180738,1.0
-0.04559279932665678,-0.018443894719616247,-0.08056899911075277,1.0
-0.05676618248477633,0.030391871007215757,0.14406225098198247,1.0
0.672410872235823,0.2766339190608818,0.12647025760860445,1.0
0.06427112430233535,-0.18356420701213963,0.3634249207030322,1.0
-1.4001864849352197,0.2666435143061813,-0.1301821282179968,0.0
0.8356396188005677,2.0859494227823463,0.9124487286200987,0.0
0.972015883903374,-0.7597840446087567,-0.7597662204178506,0.0
-0.09838811590395692,-0.36216511014648645,0.27776299394279264,1.0
0.11457413483470227,-2.454341620173203,-0.985416468002507,0.0
0.5647585186844557,-0.7103884617316402,0.6249092863291404,0.0
-0.28845042319271985,0.42639226278012105,-0.10250890938639451,1.0
30.745693264292285,23.53067714659414,24.148192686599188,1.0
-0.10480303900802804,0.08328831854239578,0.05010014302684514,1.0
-0.18769244898036672,0.14828697462547452,0.013103562080667189,1.0
-0.6996051111141957,1.1786420369198563,-0.4371312766943202,0.0
0.06943656908205771,0.02589641792760794,0.01603729414855418,1.0
0.8909381042395603,0.21844836706799634,0.7052892187663963,0.0
-0.038254898900291656,0.028150308395672646,-0.04092471877636982,1.0
-0.713655755871446,0.650450538112918,0.6399416107106795,0.0
-0.10418073609988879,0.12724652332311748,-0.057948568195358374,1.0
0.18149224788491225,0.08140144919918516,0.734705714167822,0.0
-0.097115237319293,0.07097692713958739,0.040115450121178196,1.0
-0.5466863819856352,1.3391361688030903,0.4531545647372727,0.0
-0.3798878051592788,0.22084486481158053,0.609294677793141,1.0
-0.8426224044704635,-0.14494087028558025,-0.7331786993199108,1.0
-0.06909193899754022,-0.02363969260859337,-0.1643320134622764,1.0
-0.7941791329592998,0.35905094520076775,1.2180386734305346,1.0
-0.3732254166539251,-0.4380631201675723,0.9118589159729077,1.0
-0.6036604391959314,0.6664763214695788,-0.5093305107068219,1.0
0.9656505403799226,0.14890925315675746,0.8206350066180614,0.0
1.0668661807141033,-0.5560889342776351,0.8712960188242604,0.0
-0.0027011780622405984,0.1339035700868197,0.029058679064635374,1.0
0.03522786638769067,0.13509623225878387,-0.0412510008350212,1.0
0.5141792657182138,-0.6004749082119192,-0.4322015626766601,0.0
0.5841813647920285,-1.1976960202649225,-0.2663775473068506,0.0
0.02637954874886849,-0.6401891209205275,-0.4885650889796364,1.0
0.8495610408669941,-0.5492580185695288,0.6081717578105779,0.0
-0.6006043535518829,0.08327915332583995,0.07819057869927369,1.0
0.04901328123331655,0.12079155994444964,0.10258081417376691,1.0
1.4289550203869232,-0.16095974181959755,0.6625522965601922,0.0
-0.1012029590576772,-0.09408723098556178,-0.058342343608902586,1.0
-0.028365574633202453,0.04999546006709784,0.04180336153929923,1.0
0.36728924083030123,-0.42749115631781576,-0.46326482633714866,1.0
-1.1750124791895953,-0.0863808316363953,0.13693572582825098,0.0
0.6304189960300413,-0.9302801510215317,-0.4220407215945143,0.0
-0.881838342029374,-1.6931560382737274,-0.6961594081239417,0.0
-0.2824238579780921,0.6150546543741472,0.10313054756348947,0.0
0.4924371934621641,0.9144200701262771,0.23314641783732962,1.0
-0.9837790694482695,1.1479174725595032,0.8058877109785922,0.0
0.29849666780201356,-1.6251623536261146,-1.3025091823664383,0.0
0.15286352855980878,-0.48950301808494034,-0.7222257171898248,0.0
0.3309168678443549,0.07904468913815162,-0.5919045858183476,1.0
-0.16488854700177777,0.13349675616200662,-0.19358863713437385,1.0
1.1648337294006608,-0.431749076353963,1.1307157260389455,0.0
-0.7449956440650727,-0.05951087932378579,-0.6781498827139906,0.0
0.28019436208481435,-0.7662802692529226,0.4649667200303828,0.0
0.19316064256041854,0.05603460367154797,-0.2613521222961052,1.0
-0.6702054863748157,-0.122711062907301,-0.8744370521558597,0.0
0.2731907031903094,0.2463962696644146,0.9042659979744562,1.0
0.1503989844145822,0.09827210324786842,0.0839080014531945,1.0
-0.7292132315707139,-0.2560895004564559,0.40246908172775486,1.0
13.284141909581777,27.180165514523157,26.4224634868787,1.0
18.791953467718738,20.11694194837108,17.727520303226118,1.0
-1.3554691401512355,0.04460813659138693,-1.0713105481307343,0.0
-0.6885228679438031,0.07811363627312913,-0.4819667995030226,0.0
-0.6092311474903502,-0.060473042193823545,0.24653419327661896,0.0
0.5999079480720931,0.11063900020964536,-0.36896398451694856,1.0
0.6071964306393174,-1.0359381276985182,-0.5985690123703553,0.0
-0.5237395342480505,1.5715695905698508,0.5250470246959555,0.0
1.4700878835921416,-0.6932680622912912,-0.1480294836171998,0.0
1.1296946481499992,2.4248643459126487,0.3698182509493547,0.0
0.08053176911414417,0.16745737439421013,-0.08486498291256553,1.0
-0.08501687946666386,0.0582431087725758,0.11557431059002983,1.0
0.004786750539673462,0.029095959244189284,-0.14233062245870023,1.0
0.041430740854306314,0.033822182337345186,-0.07084720781666147,1.0
-0.28505123788159475,-0.12271063104707912,-0.2913724903186638,1.0
-0.050697836540184046,-0.1370196881307583,0.19529984263369798,1.0
0.4492867128026888,-1.5337419355646613,-0.42210634687959464,0.0
0.9258080702614347,1.3976236291098765,0.3620377053904605,0.0
-0.42369975694502043,-0.49636960219443566,-1.0450598544682765,0.0
-0.9597022580368879,0.723708663868282,0.17837705373282048,0.0
-0.6091566734653929,1.0971758841918429,1.2089941555515171,0.0
12.97140434793489,14.6313973548161,22.27050215891197,1.0
0.41365673221112687,0.8972216914243732,0.24415724049620546,0.0
-0.1437345167156119,-0.11098839329130901,0.0002115346827343482,1.0
0.5122903706484446,-0.542807232233184,-0.9427057516489503,0.0
-0.2099524614606852,0.16032964672172423,0.18523765563352562,0.0
-0.16428541765105098,0.07510863565550352,-0.037517483363020014,1.0
0.4172273203830371,-0.4022554070114404,-1.2608116829710307,0.0
-0.11044131437615201,0.03910522280982152,0.05642871724060822,1.0
-0.0032324290041050134,0.01267119842826847,-0.09864424886744419,1.0
-0.3038711866042417,-1.8766175751559433,-0.13833835067824474,0.0
0.6519081834637902,-0.061683973120699155,-0.016697072026621018,1.0
1.251063786539741,-0.5734766187357186,0.7601918344519606,0.0
0.06095902871286198,0.8142190877376451,-0.2040114114394945,1.0
1.0083844555532409,1.0180574578475774,-0.35158177248113187,1.0
0.4874646297850169,-0.24712539230257213,-0.17600453886676634,1.0
0.745306109596037,-0.4914366805589497,-0.8924348093519442,0.0
-1.1273686596153936,-1.314998789135854,-0.09341102499043574,0.0
-0.5666071088890859,-0.10402082335763427,0.5200305733381987,1.0
1.235079751254934,-0.2712475935417011,-0.6256498717165944,0.0
-0.09628939787576529,0.7808545267049747,0.4293903918508236,1.0
0.6995322952617486,0.04989414667784936,0.2000919227154161,1.0
-0.977693877544154,0.06115869664624185,-1.187203508375755,0.0
-0.8580511073393763,-0.3742535705922577,-1.431051056237013,0.0
-0.6549436210751204,-0.6528392375897036,-1.0725636561957117,0.0
22.44065762202741,18.4506062486162,18.65200023665087,1.0
0.34476106797476214,-0.39191200354683375,0.4640349300145101,0.0
0.10018456387824509,-0.08364893477111285,-0.4152026882038189,1.0
-0.9147291243699863,-0.09697040072642696,0.2787310170845757,0.0
0.09406464705305514,0.8791444895201385,-0.15458802199887683,0.0
13.789673251841316,24.503074298490322,12.588521376856564,1.0
0.6045499746607403,0.5254430609895628,0.9454181873090357,0.0
-0.016752694975261426,-0.1920275789997137,0.7328718230764151,1.0
1.0375634850763342,0.29331788664926756,0.9639124463193554,0.0
-0.1553741481700629,0.21580809559048442,1.0094299781743425,0.0
-1.378473904361057,0.12261734083158593,-0.6757661412142998,0.0
-0.4699077122671673,-0.372472393435808,-0.8569006073556927,0.0
1.193646304185883,-0.9832974898599821,0.33244413104003717,0.0
0.04459567957821676,0.11510835285506436,-0.23215958672597906,1.0
0.4658964923646638,-0.39922313384649877,0.31658065401093555,0.0
0.060999958682503165,0.03298261383299914,0.05240794076672603,1.0
-1.2075601301985108,-0.9588874141875261,0.07491699391741141,0.0
-1.1544313412443268,-0.39277899880683653,-1.381294137529472,0.0
-0.06381536135379333,-0.0661971948424319,-0.004551116425936085,1.0
1.0296175110961943,0.9773146688842538,0.9773641139748228,0.0
-1.3598071280124047,0.3390560772568763,-1.263553930021405,0.0
0.15064792095774426,0.03009835949404024,0.0011818424251290572,1.0
-0.01795705210706776,-0.010093826951246266,-0.1427587932872739,1.0
-1.477928359817472,-0.3712187227288677,-0.28413269570153854,0.0
1.592229776652403,0.8946083490446578,0.7595125876011941,0.0
0.12389903920813305,-1.559377380950162,-1.7610265032453998,0.0
-0.15057534294301783,0.008468468428929126,0.03587090886945977,1.0
-0.10875175331345176,-0.07443431223445522,-0.0033915993192214153,1.0
-1.2561127934887228,-0.445715877797793,-0.1707400290409219,0.0
20.277517748415264,18.837950114928265,26.540664814431153,1.0
-0.43355271191445965,0.6963355263713399,0.143418431395788,1.0
0.003847938750951675,-0.24293301061216324,0.30572463103114506,1.0
-1.4609516637063347,0.26808818167926707,-1.0211298666453779,0.0
-0.5814641134303257,0.46302593695344596,-0.3637467403432665,0.0
0.03303866954256826,-1.1814674000998655,-0.7873880488377528,0.0
0.17966656763840305,0.737167281114774,0.23690063642113723,1.0
0.01573176008785319,0.0390678435308455,0.0985073207508414,1.0
0.1115033548670124,0.3569947106187924,0.5197237991404836,0.0
-0.11019388423462108,0.07807244485935647,-0.48451147872902106,1.0
0.2229722438322142,-0.3320256554988495,0.12760570959632048,1.0
-0.11557640279158486,-0.03969018034972365,-0.06902925274456136,1.0
-0.7574511445540328,-1.4934174094949944,-1.0543986030402566,0.0
-0.03760568477630728,-0.16565641298535963,0.09660014263939581,1.0
0.0065982666154972905,-0.12526995443093766,0.20713114840777502,1.0
-0.17754316065271603,1.629967023668168,0.3772513846654596,0.0
-0.018431291311008412,0.1563748325459071,0.0013855212922292896,1.0
-0.4653877136094435,-0.499033274344969,-0.5660596296017895,1.0
-0.18334058090864047,0.10252818492456335,0.1474219281367428,1.0
-0.5410328317123984,0.47645081511658943,0.14489994059666858,1.0
-0.5159384048989458,0.04787034867386602,0.10855030267594795,1.0
-0.8344232256403987,-0.045181139629691947,-0.34101778756399287,1.0
0.35378550077519844,1.0028234418715902,0.9358320875671864,0.0
-0.03506354121491395,-0.0431324161897072,0.14736996798765628,0.0
0.1641617005351853,0.05019783380514106,-1.1498636922197327,1.0
-1.8122397397266021,1.208522564142795,-0.9644813311863099,0.0
-1.4549550031303629,0.025820227033120424,0.11735103208057424,1.0
-0.2859367648106471,0.7944884979210319,0.03749014065136289,1.0
0.03758497716655875,0.08128466682251956,0.012547316985008664,1.0
0.908098099527985,0.45479942256418876,0.687050927688043,0.0
-0.027439224250935923,-0.348050013566255,0.7199926360531864,0.0
26.953208414072282,22.10573725434643,8.840110209585907,1.0
1.0609339228209826,-0.007294736279538237,0.5479686238027087,1.0
22.81373698797202,11.050535574160198,19.93965271694473,1.0
-0.355689141570755,-0.05834446998553414,-0.4399445548146129,1.0
0.33260575587113117,1.8179050093730627,0.8901841774737642,0.0
-0.42704610107770824,-0.15987938879827368,-0.25064793591371853,0.0
-1.7638760251376984,0.30172552441951944,0.31593218883448004,0.0
0.06855740477748276,0.15957595687449197,0.06632400163994584,1.0
0.8810620784618044,0.6804170889241136,0.1534992778945882,1.0
17.70710394330091,17.01654144402308,23.096189517356645,1.0
0.7842146039962626,0.8010117310563248,0.681331302531793,0.0
-0.045794778092299676,-0.015121718175909986,0.08739396380167154,1.0
30.795807374923797,29.48959949592877,22.628798541347436,1.0
-0.04827037381023914,-0.01812851784990793,-0.012844998542250161,1.0
0.1322937708473881,-0.804265283462544,0.4772839960662862,1.0
-0.39336593051112745,-0.38674348049678225,0.4694321193501263,1.0
-1.3610747458459223,0.01818307533921515,-0.5910826273266534,0.0
-0.13524940093579257,0.00024848572400068547,0.0315804965850655,1.0
-0.12026762316530118,-0.1727857553260718,0.16508151129944423,1.0
-1.9546182185549,-0.9800289917456885,-0.7044609370925964,0.0
1.038957019558079,0.4254889856338159,1.4366575003096982,0.0
-0.7377420239720728,-0.7143153620925218,-1.8537102356723931,0.0
-0.03287486024383901,-0.34560888023164693,-0.676744709928723,0.0
-1.1401817772829368,0.04533384256061318,0.4816613762514916,1.0
1.8391840365468441,-1.3139259818947695,-1.1320551851667426,0.0
-0.11572396630826257,-0.06602825927207877,-0.1038390070933172,1.0
0.767269502338335,-0.9588411615434302,0.7342695153882944,0.0
0.1452670499551658,-0.13512058598922544,-0.24941558676340503,1.0
0.5401255230434245,-0.5499778658440333,-0.4409030354702651,0.0
-1.2229011942678374,0.6870033376311606,-0.7143429091842574,0.0
-0.4305616794784776,-0.3271193576095822,-0.7719159445336004,1.0
-0.10777499669942986,0.04235411448938362,-0.09352545637606352,1.0
-0.6555423022918933,-0.9190387681773551,-1.0100110084840412,0.0
0.18680868732305644,-0.12315251543793582,-0.12499213284716544,1.0
-1.2108917795415257,0.34600711270226153,0.14198867383124913,0.0
0.4989102534374714,0.45038932420724126,0.1328318895994272,1.0
0.5004272208631749,-0.37147053070666586,-0.660999708288008,1.0
-0.05387155636835145,-0.020857723393055562,0.11044651028991703,1.0
-0.9349894162221619,-1.5244137676933653,-0.7745681501711771,0.0
0.4961740648115313,0.32585739200006636,0.3536285071835634,0.0
1.4063312404502062,-0.6540527912708074,0.47237216755307143,0.0
0.990279893963097,-0.7250264589151558,0.035976548815846776,0.0
0.5224201827167462,0.437952745093246,0.5782819568919185,0.0
0.01274523417637592,0.01592630570091792,0.015156535357625215,1.0
1.0242082489636233,0.16106421354231587,-1.0105605688641177,1.0
0.010028167893626191,0.22408584796661735,0.04018132704206367,1.0
-0.014456984534732263,-0.06433317722146745,0.12408472204443391,1.0
0.6836967395205904,1.5800313109131907,0.9199175279861721,0.0
0.35949283607032184,0.23197484174895935,0.19010773852808546,1.0
-1.9206781980308287,1.3281135341176376,-0.45107289318630006,0.0
-0.5686913733083496,-0.44994262556305886,-0.4008602474181709,0.0
-0.493545086099873,-0.8004450389478235,-0.6677915356153209,0.0
-0.29118332264742763,1.0483153329324366,0.12627171420298658,0.0
-0.19486153807545256,-0.20934408699822882,-0.054210470530398985,1.0
14.721143783181741,14.563641334284856,23.305187017558737,1.0
24.09401246092929,18.029937033135486,17.287992589389418,1.0
-1.0453866128627256,-1.3959368790373072,-0.878086004945486,0.0
20.695066654383783,11.141911873620188,17.639985012530058,1.0
-0.09764057231137506,-0.02529259474002722,0.2374140238996894,1.0
-0.31127190062157956,0.6668060042436051,0.6794284701694876,1.0
1.0111692731428703,-0.1525635981378463,0.6041148696671221,0.0
0.06820592839622358,-0.017102891998767727,0.06802304256644533,1.0
-1.5007177756130081,-0.21256837353766436,-0.8185661362562294,0.0
-0.2278320675274692,1.5787379265093011,1.0392348587041418,0.0
-0.8225822621261428,0.052917711268343194,0.004740144731593177,1.0
20.49107476914639,26.94442066997765,11.227123263142651,1.0
0.7603852642643845,-0.5099572723045356,1.093911195897886,0.0
0.04069038529162218,-0.09131866467695725,-0.011634810954199746,1.0
1.4502990462974652,-0.6019690769476544,0.27148612700045743,0.0
0.16071041482881954,0.14595194193026187,0.4530804305621655,1.0
0.8330550661855999,0.6894182084188143,1.7758496816067382,0.0
-1.78940873349317,0.21865427217932665,-0.8729107702267193,0.0
-0.43961998036057914,-0.159527976592852,1.7203087444542076,0.0
1.9429501926411208,-1.1340613484682238,0.6489839381189683,0.0
-0.5430648304800378,0.18212872602923547,0.5182680070742557,1.0
0.08220372706761801,0.6558005948585661,0.3724097012173898,1.0
-1.0841973347471496,-0.7480530034648183,-0.4761815709700244,0.0
0.08323609167509495,0.18197609010978194,1.168101011097023,1.0
0.032894715154326404,0.6614838873294103,0.08375924359218534,0.0
0.020168785965310465,0.2813534074975932,0.6677820591012668,0.0
0.46219154355346354,-0.3237434453088377,-1.0095793862314215,1.0
-0.7133999985126271,-0.20410997718499932,-1.872581409169602,0.0
-0.10754018971300972,-0.7350791505838032,-0.7760056545411989,0.0
-0.3904073363833769,-0.7612936531440646,-0.1607349324359495,0.0
0.6285102307566476,-0.7793271076894839,-0.08630693555439223,0.0
-0.0849945746237688,-0.5575557157024444,0.309694989571921,0.0
-0.762776215213308,0.19099845891910525,-0.24785298828221086,1.0
-0.11257421917449123,0.574363985105546,0.5362484309060618,1.0
1.887549140301064,1.4391186479234401,0.7352592266342777,0.0
-1.2681821349342761,-0.9535020456079949,-1.555586446094261,0.0
0.9715607256459373,-1.3896744594957129,-1.4639169345481007,0.0
-0.046226000946576605,0.0623157065080265,-0.29717150726772507,1.0
0.028235304995443224,-0.045012472635412144,-0.0030732794790750088,1.0
-1.4624391338801144,-0.6300924617417154,-0.25764597769989717,0.0
-0.005031969019002559,0.09035209131113303,-0.014948786589447078,1.0
0.5850374725301254,0.730102656251403,-0.6533670765248925,1.0
-0.7639675371657433,0.25811424469292094,-0.8146369261988797,1.0
0.23889010628927676,-0.48794308151270854,0.27064258795357765,1.0
-0.007062192691397424,0.07433282972908484,-0.0037019909159269867,1.0
-0.1271613241713441,-0.7278241085553723,1.038468058973626,1.0
-0.03210535255278994,-0.9185603504255477,-1.3704334542269392,1.0
0.7091266364665403,1.809856829823836,1.2007120943855416,0.0
0.1890948566959553,-0.32273439054575465,0.20978681702505164,1.0
1.1486027035032995,-1.59467176743556,-0.332002435335719,0.0
0.12117997148801324,-1.082360375282306,-0.5924189077324566,0.0
0.027242426142866545,0.019563574054434308,0.0836355371612975,1.0
1.1446264260682282,-1.256823832617944,0.7325893334714436,0.0
-0.056010182507089515,0.06511901243914271,0.5399609065482871,1.0
-0.14453078541258244,-0.04732663465831791,-0.05272388377281828,1.0
0.2092849271249604,-0.5654388398602598,0.3932944669069746,1.0
0.06780837767732553,-0.14046097584744024,0.41194179350522414,1.0
1.3185822869366468,1.5757982074214087,0.21080853638093977,0.0
-0.7416562032981678,0.12486010957692378,0.2521487196011115,0.0
-0.4590857597199422,0.9633251319424527,-0.4679472977526766,0.0
-0.4990063104834662,-0.5593694231404782,0.03425629971963306,1.0
0.8271334772425083,-0.728877551563897,0.5490935819776879,0.0
0.06258253576928884,-0.17089735765684202,0.04941367935865151,1.0
0.7610384073048098,-0.6033187445100695,0.3743169269659236,0.0
20.955759550572772,18.552872071490192,14.93327950896463,1.0
0.5746281745582394,-0.11268047076143838,-0.7069247958772052,1.0
-0.6533088932589473,-0.5668185261050445,-0.6750650279653904,0.0
-0.35223733138921137,1.1189162456175943,0.7925212328356093,0.0
-0.18168107093440852,0.9933573067494446,0.04049930675066868,1.0
22.06964053226109,13.775342171431763,31.56982502115412,1.0
0.02683430163674848,-0.0743406536270249,0.0437495644535487,1.0
1.1975959327328716,1.3436998927355353,1.5067181906819331,0.0
-0.05678140445642487,-0.09191984867967018,-0.2113222579697943,1.0
-0.7654590450968233,-0.30158741794417154,-0.7702337896055911,1.0
-0.03726992825214362,-0.10403391944152914,0.02289744049403801,1.0
20.54646096353084,34.864355346779654,21.380183505926052,1.0
0.8803569253214828,0.2195458254876097,0.32006159713632837,0.0
-0.00032524305960564113,-0.02177792319772576,0.05853697304547609,1.0
-0.06400139838999226,-0.02781248531007523,-0.06711146708005823,1.0
-0.15167720870888732,0.5396219426308604,0.04501778151967183,1.0
1.3120406777188156,0.08331660324741894,0.5964935937339971,0.0
0.6605748513698604,-0.092319248927409,1.1257244095654477,0.0
0.4777740208675329,-1.0055309860725314,-1.208911341018895,0.0
0.4264708872487999,-0.6437511591330274,0.22454668432554312,0.0
1.779879313381151,0.4948591014540843,0.025859623912872665,0.0
-0.7337511758581856,0.22198241544233122,-0.7939619452639952,0.0
-1.1383918708218825,-0.9549753896843491,-1.3448972816946294,0.0
0.17091579401386045,0.14289909790653968,0.07988499259776008,1.0
-0.5524959202599226,-0.6843625536678138,-1.0957231449057676,0.0
-1.278106246846571,0.8237072070584233,0.8569754325015165,0.0
-1.689094306719539,-0.4508680677890253,-0.781206269781128,0.0
1.3828141855864593,-0.5024773441166545,1.2441569146972355,0.0
-0.6458005528943339,-0.523050876435429,-0.9525209460955265,0.0
16.988526230813985,28.36420030150971,28.950435188817906,1.0
25.039988720954867,16.806830862036744,16.592676346035702,1.0
-1.3601300050752276,-0.13199259516461684,-1.1811411107137915,0.0
1.123291280878012,0.5180583766445009,0.9305789872378056,0.0
0.013953923307499828,-0.18214991252346807,-0.011110187416574364,1.0
1.6012893494235494,0.19284481818885496,1.0658030141827075,0.0
-1.4205561037438883,-1.3522260878100067,-1.689703819621866,0.0
0.14805048623905534,-1.3419425729021892,-1.5692917509033169,0.0
-0.10256055153037322,-0.2644879449274695,1.0239740953226844,0.0
18.96970758314594,25.636803233879476,26.77259667856022,1.0
-0.07040060557763628,0.2924405096640706,1.626317602583711,0.0
0.09543271956512678,0.09507104735746391,-1.066174810571049,0.0
0.24866732017717072,-0.6089465598694729,0.3411644797020156,0.0
-0.41135387850867017,-0.5092513169456797,-1.5235212197822705,0.0
0.016920043722000514,0.17317972502956883,0.020794244643001385,1.0
0.025638024781343024,-0.19950367509912834,0.16029336994546234,1.0
-0.3431192432839302,1.4224409033714485,0.17624141272253094,1.0
-0.06089034890023311,0.06715226231228132,-0.02334010267122839,1.0
0.10328608376982827,-0.09409977571249944,0.06744734465778143,1.0
0.5438824100843048,1.3548757227353376,0.18853266152360137,0.0
-0.03043225537685676,-0.5485132506877539,-0.49522477847626273,0.0
-0.824140667366041,-0.6071987741706878,-2.488712380400875,0.0
-0.05536254413427541,0.14373205935105593,-0.12580725050782846,1.0
21.370374336689043,15.826763304966828,30.789840173954648,1.0
-0.39158899399503916,1.012130097175214,-0.7344072039733819,0.0
-0.8463212520453134,-0.8608999300678984,-0.5815533782819307,1.0
1.3163224917047314,0.4673258292863858,1.3895102469626681,0.0
0.032186302497418856,-0.09129492937568207,-0.15900521484091534,1.0
0.27336144799705986,0.2976894075410587,0.9753003218806995,1.0
-0.06430742076931913,-0.18132038956924654,0.06856440853420499,1.0
-0.5167275724387455,-0.5734297863975395,-0.2833031800270619,0.0
1.105557614425547,-0.7396900391744108,-0.8267812990937371,0.0
26.90438881672754,9.84686111348844,25.445685215374905,1.0
0.09630430228997373,-0.2986187753266797,-0.5216042224655248,1.0
-0.27644493096490713,-1.4681361193519218,-1.126334355685144,0.0
-0.07788386070555398,0.10963304299917834,0.7288533186099229,1.0
-0.7332166042687887,-1.454520933485159,-1.2270658779616483,0.0
15.05758874477801,20.374211760010667,21.882975131173616,1.0
0.3068178467822823,-0.8629591505577753,-0.43702159900702553,0.0
0.402850574292333,-0.9338457814972914,-0.16851388315516533,0.0
1.1776962703975515,-0.5454841358269795,-0.04715119269696244,1.0
0.011350167019336197,-1.1214342221536355,-0.3859477325116222,0.0
0.5987639736256372,1.0986623878674298,1.8390558635981544,0.0
0.7741582588980263,-0.1336277566855854,-0.22338404951691138,0.0
0.40803521051684,-1.8006726168561054,-0.24478335473316326,0.0
-0.08295062693157107,-0.8738085962497443,1.2752134943785332,0.0
2.197692207937557,-0.399872344017938,0.11620255810202024,0.0
-0.05997479439577424,0.04231310208600793,-0.060490687961419834,1.0
0.026566427183159387,0.02659128388197875,0.19263612817876455,1.0
23.827619136041076,18.486413666005568,21.366196296002794,1.0
0.1759416398459254,-0.2976535129696158,-0.08991158098230567,1.0
0.10988465382565969,-0.4582381634098888,-0.32224958060691805,1.0
0.8609346423897221,-1.0688180692756477,0.0785267667949523,0.0
0.08906798831272697,-0.055688875749306824,-0.08486939015963736,1.0
0.07886104958400442,-1.5680416531602472,-0.7066839510562517,0.0
0.053576538126735095,1.0037398676572884,-0.11218381968691003,1.0
0.012720567401715167,0.04678809359493334,-0.07045908922067616,1.0
0.043830119363170696,0.6666640632146971,0.4030359090970974,1.0
-0.11603069518955088,0.009918106450905167,-0.02736448968775005,1.0
0.06207445378636748,0.025114737478322303,0.10763342870213362,1.0
0.5192634405142773,0.058459899137824546,0.016210385265736767,1.0
-0.004164659684628801,-0.07509113881144895,-0.1788022499951546,1.0
0.43926336178188335,0.8329885695513359,-0.11590703756159168,1.0
-0.16678679914838773,-0.35291295108197424,-1.169380422630709,1.0
-1.1387623226206507,-1.1028755695591257,-1.3990486849602652,0.0
-0.40266807664921983,1.414760846142312,1.029086991830733,0.0
-0.0787292054551173,-0.22937977988441197,-0.7185065571977963,0.0
0.17337501686775791,0.156630735842632,0.02581297977624728,1.0
-0.08169769310977418,-0.07338240628913702,-0.29907550558838025,1.0
1.007296576743283,0.27845452144046984,-0.0815004791395203,1.0
1.5925980407811846,-0.39132960839730985,0.35551958101496317,0.0
20.48327657089536,24.286577641502028,14.857251748793221,1.0
-0.0873880057522373,0.6284615231678645,-0.45951691156046054,1.0
0.09604343172201235,0.10522262366570162,-0.08916215142503231,1.0
-0.3649452779823681,-0.6232280449747374,-0.4203384478370382,0.0
0.13604667474723459,0.716360755050242,0.17346840212761983,1.0
0.7543722163402724,-0.04962069054950541,-1.2833527031790983,0.0
0.5670409494606965,1.393726548255108,0.7688344379692773,0.0
-0.20960166249360923,0.019685914028044624,-0.1719378365529024,1.0
0.3033656168984833,-0.3869258654654945,-0.36821408461511373,0.0
0.9791753807649648,-0.10424452817146385,1.0373371993300045,0.0
-0.21788543253077935,1.6351574257529427,0.11920486189237084,0.0
-0.7414395437545251,0.033933606118857346,0.1875635424686248,1.0
-0.7776252190527341,1.0509163601397251,-0.15789500002428264,0.0
19.523089314577973,22.357324409046363,15.04239818080024,1.0
-0.11407463432801024,0.20581933788681447,-0.15952220372158832,1.0
-0.8533481517333241,0.4453769334816399,-0.5979257805511065,1.0
-0.08114486245023811,0.037871622313835354,-0.059841663088678214,1.0
0.5277809372677517,0.0031351288992363946,0.6580818195662049,0.0
0.6000688190311487,-0.318555056367059,0.3226392631628086,1.0
-0.31894418120471374,-0.3476666633611127,0.4262523135546577,1.0
-1.4879662933311564,0.1213726499362277,-1.1717962474341177,0.0
-0.77391630499471,0.49275249518348063,-1.3590961014444403,0.0
-0.13074030410729276,-1.0359057832549734,-0.20235811611014387,0.0
-1.257746937148059,0.6231222641040038,-0.4005811394620159,0.0
-0.049702589398943446,-0.038328105327580055,-0.014556537621449171,1.0
16.083590021330977,15.063702922341625,21.511761206992507,1.0
1.4315192525588567,0.27458401085045486,1.1160343148838159,0.0
0.11672546795215377,0.132028459323997,0.06222962845504391,1.0
0.1446206700466848,-0.12109343771395796,0.09259298869131008,1.0
16.31545422581314,20.624163360318416,23.15612387932259,1.0
-0.913956026952357,-1.259875158928997,-0.5593882379770707,0.0
-1.045550995818303,0.6270978222931101,-1.0475376980710664,0.0
-0.10930952693892554,-1.551898315216993,-0.9730999106382527,0.0
-0.8243676695169648,-0.3084476957635739,-1.122460541384198,0.0
-0.43999319886998,0.8622856972970736,0.4482653320356678,0.0
-0.04438289064069681,-0.06424684455745028,0.06383635645626679,1.0
-1.0382304763708108,1.4549345175676252,-0.5888799226627732,1.0
0.07456168137491924,-0.08707471787442245,1.0125584375669892,1.0
-0.4999314754779867,0.628676926231968,-0.4128031706877162,1.0
-0.7232605758483472,1.7516407950894437,-0.15956748309039676,0.0
1.1834030128393946,0.13477517162193853,0.5364431613353315,0.0
0.058170843113552376,0.01973988229161631,-0.04745683274754155,1.0
-1.527856263423798,0.48628566280566266,-1.3140909653758108,0.0
0.09756928070458815,-0.20513856147667503,0.06795377723686338,1.0
-0.3048609958253285,-0.6236399393103993,-0.3133214520952701,0.0
-0.061456947745095546,-0.3616432635948929,0.35415272096674,1.0
0.9793410654743911,1.1907270557338112,1.186409436983122,0.0
0.9810167094582817,0.14398625943699025,0.4946249388182845,0.0
-0.06070955051086522,0.044901306455959994,0.06448464523349887,1.0
-0.4582210060803369,-0.27491016511536537,-0.1869073197697387,0.0
-0.019476415630355997,0.011548978854950499,0.02268923493663685,1.0
0.1186871856133499,0.07028885575645179,-0.007459126961962336,1.0
0.45542298161023825,-0.33444581624980657,-0.4020981558947672,1.0
-0.5826260735036602,0.2581544883655342,-0.78254532628277,0.0
0.4628194362031368,-1.7548458750950913,-0.7982293543092579,0.0
-0.2827550135942272,-1.1978518370071245,-2.281340357619395,0.0
-0.6591940817907167,0.30240215027391654,-0.6743299249793633,0.0
0.08071562310177449,0.1195376339662063,0.3093430623661944,1.0
-0.28095202291592386,0.7761019175673479,-0.04691087982272978,1.0
-0.3937016593869723,1.2709714022570624,0.0795692405430117,0.0
0.23751962341520874,0.3098024728318358,-0.6080857916664784,1.0
1.2956174979898925,0.765679329860433,0.5246719210281828,0.0
0.5588980501052812,-0.14381536488949836,1.1094784112688052,1.0
0.6843160854298126,-1.5792137563702258,-0.806027901187477,0.0
0.4371380191687986,-0.15243242258200673,0.5504546576460585,1.0
-1.263270413225404,0.04103684578095135,1.1202802335430406,0.0
-0.7011706575343577,-1.0452494457224941,-0.9198435842192361,0.0
-0.27245571078309433,0.9112627388830856,-0.32689809508582135,1.0
0.7463770462699361,-0.5691167540106846,-0.16127408378195507,1.0
0.029726393276774767,-0.03654118869225555,-0.040190937049679576,1.0
-0.035879583891577006,-0.09820903870112771,-0.004658833894059315,1.0
-0.8366857313549457,-0.11283675935123377,-0.5235171453672919,0.0
0.3079854266531278,-0.06033718060921145,0.8625167612564758,0.0
-1.3106856132265488,-0.14506190221598425,-0.450015093811434,0.0
0.16384306202095866,-0.3333641580327705,-0.16442663884586234,0.0
0.07369756867159905,0.0711094767752244,0.06940815261731476,1.0
0.0373157028611941,-0.13982527576330214,0.06009851395704805,1.0
-0.12819950827194837,0.21594374966827878,-0.17098713263053344,0.0
-0.7306408042086207,-0.31555215156490624,-1.339278137482649,0.0
-0.08452325024197811,-0.15847547525164177,0.10447648185949332,1.0
0.05076799016187762,-0.014614622861468071,0.018520543537119027,1.0
-0.23696146782955196,1.450448229514382,0.07428837096736884,0.0
-0.25548475881516186,-0.927037583258366,0.07200212728073117,1.0
-0.7130124870651129,-0.3438345856366202,-0.22056984707287547,1.0
0.5488951019045518,0.2539225189119738,1.2772391701032295,0.0
0.01990293940934858,0.12668389242314723,-0.10678973308995694,1.0
-0.19389492719272736,-0.09095467531376389,-0.48335228143090136,0.0
0.11485551931406268,-0.3443099075716624,0.35299416652973253,1.0
1.3296267446843355,0.19067158919409696,0.5921825972674177,0.0
-0.876453590214824,1.2402928239634257,0.8615999469826758,0.0
-0.1427842392653966,-0.07279524516706508,0.09768538764945228,1.0
-0.3222224838527174,-0.7085087566416295,-0.21168201378374807,0.0
-0.02814336042971055,0.16780159660995406,-0.24279250182692866,1.0
22.867292487889994,24.29743840132404,16.411008218104634,1.0
-0.009550593241400396,0.4676703603310225,1.0390288153431202,0.0
22.041811275542464,15.525355685458504,13.830856016795325,1.0
1.9286556307796985,-0.0014117507291603881,0.9314260813898506,0.0
1.2528296940469321,0.009830255134886667,0.44608637971132015,0.0
-0.436418172469759,0.7761690451637839,-0.18033999571388265,0.0
-0.08780376990748655,0.06741935328280348,0.1294219338634829,1.0
0.07181106033396067,-0.1925963478605509,-0.024421333020564307,1.0
0.8798639521328625,0.07533991599626609,0.3725846058446929,0.0
-0.07287885366309928,0.05690820613861095,0.012916819091489038,1.0
0.0381836150647443,-0.7096620911389027,-0.5368251847882209,1.0
0.486994418903266,-0.3740207250630273,-0.5736108701245,1.0
-0.8518042238497172,2.210201576509374,-0.010975826490359664,0.0
-0.31462748206547836,1.3906811239888033,1.2328830702239115,0.0
0.025234771047914734,0.22622471422544313,-0.0649378452040078,1.0
0.9181438935636344,0.4597192324641695,-0.5887140981309557,1.0
-0.03949505826948622,-0.0560251422844274,-0.15145733781365345,1.0
0.09473996314581798,0.9590918208925298,-0.3163594066219914,1.0
-0.9008176661428315,1.1400832984978013,-0.717716975826553,1.0
0.8621646509208324,-0.6590439498011876,0.40304501794041114,0.0
0.21590534377500614,0.5773265089340412,0.6546831578384652,1.0
-0.5903398299606664,-0.6717712647401864,-0.7433551798969124,1.0
0.9924438905976718,-0.4428978267786676,-0.3022543992464783,1.0
-1.6446521076782843,-0.41477750961584137,-0.49343128635969175,0.0
-1.0144329113031492,1.1249241826964331,0.5158873364206483,0.0
-0.23255678378293754,0.3962363228843081,-0.27357434289568305,0.0
-0.9417264027492261,-0.6938434533414262,-0.34917707248189345,0.0
21.540144032430497,15.043632183401417,15.103865237563195,1.0
-0.1035666266851057,0.05215499782027978,-0.03950214076862736,1.0
0.024776789308058822,1.589721590233402,-0.39117416833616747,0.0
-0.019811192097420518,0.14752751241830742,-0.9731414302433062,1.0
0.09982279689116992,0.19606862903274785,0.10620915868866901,1.0
0.1902636539509581,-0.2600726949107241,-0.029296202276442553,1.0
-0.7738844081369407,0.31519422111048756,1.087368508700841,0.0
-0.017935176378344752,0.08485667098575493,-0.09528008519920002,1.0
1.4295142054597694,-0.4329240123372428,0.17340236449398283,0.0
0.7611880895441597,-0.8783499042950061,0.9195685389137639,0.0
-1.0359534582468302,-0.08746009041820418,-1.2595178058715812,0.0
0.5782762856496614,-0.04369749164445763,0.8413981782639282,0.0
-0.12007031478545857,1.4530027785308004,0.6257509324356318,0.0
-1.7770449784515683,-0.5154177434771697,-0.30877305517438336,0.0
-1.3739706670735679,-0.7398920093535578,-1.0687458592754624,0.0
-0.18455140128240666,0.47931472569168126,1.0602717472169672,0.0
-1.6739013758013643,0.7109603886904974,0.3240703151362714,0.0
-0.09639462930364291,0.15236845954450748,0.5034160054687585,1.0
0.29327573884456587,-0.6535593953453062,-0.7028310948526556,0.0
0.03531022729974959,-0.1151425147532689,0.12145741436451535,1.0
-0.20298082349844077,-0.9310789624790401,-0.27198542440018403,0.0
0.5140726871589903,-1.138348195982616,-0.6904403923656656,0.0
-0.1026447666393666,0.0814593561871468,0.06475259206134983,1.0
1.5814148291096386,-0.371973138494247,0.6799720434507657,0.0
-0.10920930717404637,0.22931810529910798,-0.023706862856896938,1.0
0.9028326018333561,-0.29856366393470324,0.666633327315471,0.0
-0.9372501413280834,0.8782830292652627,-0.2376720757373804,0.0
13.234244847138257,20.262358595535755,23.58645336014583,1.0
25.384239309051033,12.289858010019167,35.35561891669562,1.0
1.3543438359662963,0.11146716052591771,0.8668412556033195,0.0
-0.7897790102505038,0.19620632763885829,0.07718166286440487,0.0
1.1876360238647246,-0.5372937662574783,0.5542017092573116,0.0
-0.20864528079816164,0.0740083219478097,0.3340649716589144,1.0
-0.06112227790060262,-0.2799163832133008,-0.9295819165739404,0.0
-0.15031449870813873,0.9851712631772084,-0.021191220150963197,0.0
1.0269501228945441,0.7112600489154541,1.9652826849049543,0.0
-0.7923102208514542,-0.3137614270736311,-1.0970836549941394,0.0
0.030016772659592794,-0.038562597826210146,0.046609924184364396,1.0
-1.6636168313642052,-0.8935788192148258,0.8058994439161966,1.0
0.07159910253727035,-0.09326549230084613,0.04333852680654109,1.0
-0.0051818482981241375,-0.219117142330152,-0.0420026060003135,1.0
0.6435738795506161,0.03703303987004835,0.6823684828094964,1.0
-0.11496167196046264,-0.3217668904986798,-0.48536082704135186,0.0
0.28477171130621426,0.46460570655323324,0.40293060738002734,1.0
-0.6313410723748024,-0.6213439223150943,-1.7906839969279855,0.0
-0.035034219769630275,-0.1804538826378831,-0.07512656989154487,1.0
-0.4374073621483119,-0.29177830615286304,-1.7541150863445913,0.0
-0.17103201042922067,0.18195113550506758,-0.5649614645039326,1.0
0.28906052920512076,0.561787545359641,0.6480828610734868,1.0
0.2675220401015807,0.27948392573170827,1.7415520555733368,0.0
0.11239875940407276,0.029025722001662476,-0.0990014599861173,1.0
-0.18761425125488662,0.6106725030595701,0.11617578281748049,1.0
0.2952622406991587,0.02938557837593233,0.17150060301708775,1.0
-1.3125934406395858,1.0755334073044123,0.5769610689092417,0.0
0.33241996477803587,-0.8708353066707716,0.7231502806427579,1.0
-1.0369973266228432,1.1989893938231166,0.04414510890344908,0.0
-0.06663910565136037,-0.0817829435932674,-0.0029521739321635974,1.0
-0.5513301054197587,-0.24499700330789584,0.3619760072562615,1.0
0.004997549423459334,-0.03580101573555336,-0.0041883936226559055,1.0
0.11753897307172488,0.00417151516125263,-0.7080315053680547,1.0
1.414071120164414,0.028949989281075644,-0.3993263551537631,0.0
0.12946798690488742,-0.14845015870929076,-0.07712921692810437,1.0
0.1408728525707419,0.1246703638198258,-0.10827490658114142,1.0
-0.034992155456760515,0.06473973324537678,0.12940122684176142,1.0
-0.4383673981237089,-1.4819831363865306,-0.687482308439571,0.0
0.9358952013616916,-0.6407329363272559,1.2849360925396036,0.0
0.0729606360662066,0.0534353867795407,-0.0980303485262856,1.0
0.012621488001555227,-0.04375043469946597,-0.08745471448064698,1.0
23.03266473164488,20.596615334694363,25.67371423006633,1.0
0.9799035339896581,-0.6211137455638992,1.0014205397634206,0.0
-0.07502458224506225,-1.327611070875057,-0.6490511797588583,0.0
0.5493428685202693,-0.04691938349158803,-0.6713922939409753,0.0
0.10464749215374336,-0.6370859582050419,1.1639876158488554,1.0
-0.34960743577783343,0.6002863342514433,0.32577227635683675,1.0
-1.5906186094735384,1.1489497248309692,-0.18295536482182748,0.0
-1.5864855199899028,-1.1688009141560687,-0.3503648775998903,0.0
-0.2508909879919392,-1.2600002772490475,-0.8991502424627944,0.0
0.8763252968449494,0.020165124208388785,-0.3478693109489927,0.0
-0.24432140932518087,0.34206866530290075,0.13949337546966142,1.0
0.407214238698124,-0.10594342646796626,0.9478253997719336,1.0
-0.1050047121629587,-0.9568062949222687,-1.1822447159203358,0.0
-0.19732276201584809,0.3932688063489598,-0.625581382276447,1.0
17.607400634277106,21.14545948743813,19.06921898259972,1.0
-1.3292048872580668,0.6087840885335754,0.25382110353187937,0.0
0.7259598382000056,-0.606053493696303,-0.9701432496854073,1.0
0.8054520341779235,-0.6762737057786139,0.1360450428896792,1.0
0.13562044090393305,-0.003966278356439169,-0.13818704767740245,1.0
-0.14160359136565273,0.9362358880052746,-0.19913356245235347,1.0
0.42132973193820433,-1.4973529363228024,0.32357443194669805,0.0
0.11360623687724197,0.050651512451994424,0.04578671137220328,1.0
0.9631580027726256,-0.8545482277953371,-0.2659626016765785,0.0
-0.775112857469207,0.3634329163900146,-0.13876802360689205,0.0
0.840295124431854,0.3883086497355064,-0.2824360748109629,0.0
0.03824778049361086,0.3559237429033538,-0.822006933266407,1.0
-1.339528211378151,0.4588087214317546,-1.301957292299718,0.0
-0.1273190770758819,-0.9059723454998382,0.27158861273160056,1.0
-0.08862909775542688,-0.06137242082268077,0.11758166971089808,1.0
-0.049720694254998254,-0.3051751253756847,0.4920921217396892,0.0
-0.0004342146600488095,-1.6830629611364079,-2.72131992247684,0.0
-0.07226840953582539,0.11887675167621427,0.3423376390330762,1.0
-0.7335524988283962,-0.5618413532121488,-0.6304472887605556,1.0
-0.965565106154549,-0.9300461012549938,-0.9240560207015917,0.0
0.7996879863549977,0.415083585006094,-0.4576088172170642,1.0
-0.6142102451904198,0.17532577785604114,0.11075653084929962,0.0
-0.9182130925056641,0.560697749480995,-0.5046527018256493,0.0
-0.9904511809572697,-0.17686444166739,0.45166293540389,1.0
-0.15381290919068635,-0.05573291299885278,-0.06466860484891473,1.0
-0.3791567911094137,0.857786855268704,0.00037609094681745336,0.0
0.359039142959847,-0.7325163085104354,0.18766771856813647,0.0
0.05847224554260589,0.12652558570576397,1.2718410405988412,1.0
-0.030279738310876703,0.03598377742545669,-0.04262672026344547,1.0
-0.1658669765855771,0.2351592467270148,0.21747501458163493,1.0
-0.028695006641530293,-0.02485419010428961,-1.3278662274780544,1.0
0.04954229867060905,1.0818545932421235,0.46160885948924235,0.0
0.014106101563326548,-0.3000451696793798,0.07894995735120033,1.0
-0.3835639262116068,0.5356488496452252,0.16453355858287366,0.0
-0.6471508101283276,-1.4306866775677207,-0.45270236670915875,0.0
-0.3121766856121794,0.6029859222234117,0.14205000675228424,0.0
0.08972115928470858,1.4976402517696406,2.015264166451016,0.0
1.5804939668001996,-0.9916885487041405,0.7130178653767572,0.0
1.0001314945650301,0.2060537279903733,-0.007791399070689375,0.0
0.13869283059764032,0.07100330732566716,0.008021328230601626,1.0
0.9893596368266881,-0.6310290859770946,-1.5781998206369403,0.0
-0.2478434540977035,0.5483019292326242,0.8108827985581842,1.0
1.0090994289670148,1.0419364031065985,0.26710641796810647,0.0
1.4190367442465934,0.7884283582128502,1.4805874241876382,0.0
-0.09034775276768908,0.049593407428043024,-0.1255595839931065,1.0
0.8885912682419959,0.10675827565136897,1.5411767568129653,0.0
0.6041107766054098,-0.15438406695713544,0.6754431350047524,1.0
-0.13467804029095104,0.1662583072326908,0.846964270234974,0.0
-1.2093448186416955,-0.4339428635040624,-0.4674440458306021,0.0
-1.527267743315326,0.7260087622041509,0.4828057746741466,0.0
1.4248399767976303,-0.34126389365393156,-0.16699021733027594,0.0
-0.09934083125908078,1.1674659651261106,0.09187331137888152,0.0
-0.05266047592398037,0.09350213572093986,0.07655629005717142,1.0
-0.2858582150553277,0.030341162577752608,0.04806064574555728,1.0
0.24677853587108248,0.14596766361962152,0.4467651042790864,1.0
17.758376247064792,18.83251619225387,12.894013306246475,1.0
0.04272997580322703,0.15856632569618412,-0.192633041519872,1.0
0.24797951452427677,0.4789182905381244,0.6365645202957018,1.0
12.469356447680306,18.026174534488177,24.42237204880295,1.0
0.8114871414964349,-0.6442823959049896,-0.7439015605666135,0.0
-0.3729596433542951,0.3538282662147141,0.07580426723965294,0.0
0.8391478484358184,-1.1478625616133291,0.35072066679159963,1.0
-0.01856050864563661,-0.13985812464167255,0.009070795179363425,1.0
-0.5409691613869473,-1.0091595555794068,-0.42016585546643775,0.0
0.538469558189165,1.1791746923003825,1.2387243250314002,0.0
0.6549924339944374,-0.1672649996894559,-0.5546805285081312,1.0
-0.12779109451285162,-0.8857102915188898,0.6318737856749043,1.0
0.42507623089596924,1.0146845788947598,1.0727261254335871,0.0
-0.06111901706094541,0.7601087656652876,0.3323924586201292,0.0
0.08234644410938102,0.02747680372384126,0.02624943237873846,1.0
0.5404641118288415,0.8006109283649168,1.2647611390856721,0.0
-1.5307919725622205,-0.19271420009797013,-0.4991740409175944,0.0
-0.008758823803122937,0.16238024463004064,-0.039825670970922426,1.0
-1.5365338950526177,0.11021843992684617,-1.00384222927868,0.0
-0.23194351647881067,-1.823575650153334,-0.0341245299843953,0.0
0.21535894710696152,0.034505163509838094,0.28356153074358603,1.0
-1.0925435308670521,1.1347293051120826,0.894921920254256,0.0
-0.10516859174821946,-1.2240865824211526,-1.027785999709284,0.0
11.828598089317007,23.10769015151643,11.464723722958317,1.0
0.7185495599426018,-1.5725365354613339,-1.1895605220034384,0.0
-0.17583668759836374,0.13134544158328545,-0.11984387245825814,1.0
0.16134506087669886,-0.6763401772029177,-0.3166488834399316,1.0
-0.18848063628191625,-0.1387400031782989,0.1683820970837522,1.0
0.5002155783209609,0.06780631249565913,-0.26423165882810756,1.0
0.2169878191836534,-0.0015944748018868469,0.08000482989248227,1.0
-0.5472546039711069,-0.696998275442124,-1.3735819876201703,0.0
0.3030105724952118,0.11571811587346092,0.42484124796982253,0.0
-0.5720338522588805,-0.13944083890969255,-0.3207183883202196,1.0
-1.1664883869571532,-0.35309447496318436,-1.053952070489329,0.0
-1.3458345095837903,0.052895824796489965,-0.3291585300623369,0.0
0.4343157541966212,-1.70626977176997,-1.0360398638729007,0.0
-0.4786451733322531,1.4189881886369753,1.1571219101168733,0.0
0.2970446124005277,-0.3227462303869849,0.9245112320206346,0.0
0.01447392309876652,-0.017844105515369097,-0.1589541259549903,1.0
-0.2259772069123736,0.9440501257661941,-0.041285733735036,1.0
-0.3067482885351705,-1.0422621185679444,-0.3472011627623979,1.0
0.05318248047785852,0.010196395461273579,0.10842405060193955,1.0
24.822150126033527,25.678979384981176,17.722319291750384,1.0
-0.20989288938037967,-0.09755576325792216,0.1138541506377377,1.0
0.050816406544509835,-0.07881482124478248,0.12375835194016588,1.0
0.2970392031858513,-0.3153126436335466,-0.19882685422066224,1.0
0.11394421857532329,0.06756673705043396,-0.017171075556676622,1.0
0.1066587640344493,0.48782032776579504,-0.30024284887728536,0.0
-0.6227306036841969,0.6328720164669108,-0.12305686976914444,1.0
-0.08944407129353432,-0.005726442224407841,0.22963126727626926,1.0
-0.7545411976788817,-1.1119335791817064,-0.5597099304820345,0.0
0.6495326819013103,-0.7273626948577709,-1.17434977921953,0.0
0.0988057968722227,-0.20601257560141906,-0.013286288498186022,1.0
1.378085940969456,0.2636677274194661,0.3657876253559592,0.0
1.121615973089598,-0.4000406967348744,-0.5842521492164384,0.0
-0.21055739115769345,0.17449669324579994,-0.0030473071567542124,1.0
0.35134990813002076,0.8937838376763788,0.8604211773638946,0.0
-0.2850795665185767,0.6913858839801789,-0.4564872055132446,1.0
21.38745051909796,24.758050193943745,29.560564870245287,1.0
0.11952929865380456,0.0040358509274692955,0.04556197724577563,1.0
0.25639147523277517,0.8886418896697315,0.7392674939459836,0.0
-0.0557945818357464,-0.14853436735863865,-0.0031195618429027123,1.0
0.7384668297553726,0.20143269978134298,0.821236776594213,0.0
-0.9373898883378768,-0.39445414666394624,-1.3169607967436763,0.0
0.184836558650641,-0.1741913115855104,0.12179633115589612,1.0
-0.8734553702349372,0.5105006035435555,-1.2396137270658385,0.0
0.21270330756566058,0.5014577623424327,0.17295163017975235,0.0
-0.11842299810258812,0.0053970538143998876,-0.03595169414813139,1.0
0.07100417990561254,0.0650974105009839,-0.10991215895970806,1.0
-0.06065794384553891,0.3440037650081564,-0.14304866072209588,1.0
0.2347667806583784,0.48898648870590583,0.9945067235649122,1.0
-0.026624274921804178,0.04871272120708781,0.006077441360370618,1.0
-1.7568791968523292,-0.12478134812963959,-1.3101118088848085,0.0
-0.06283778011239718,0.367194537182512,0.09693661945802462,1.0
22.700178201228518,23.602300616582532,22.040701272567688,1.0
0.10859907382500245,-0.08213955160034485,0.09495271830876525,1.0
-0.34274117840919577,-0.35513311405941556,-0.8292929922729145,1.0
-0.25878842610963804,1.4718788684858681,1.1382917187553785,0.0
-2.04296243558324,-0.6901711283363915,-2.489162239708919,0.0
-0.16900474486113817,-0.15835263895413984,0.30692319922136685,1.0
-0.22518163961518206,-0.2528754880419636,-2.15092336192062,0.0
1.5539626871721341,-0.40952318965710033,0.27096527762303063,0.0
0.06548137322512314,-0.05178583596474885,-0.02884058518347145,1.0
-0.11847589924998042,0.0946131069244376,-0.0018465839010021038,1.0
-1.0587641349138512,1.4349178197254873,1.3300064479495213,0.0
-0.7293797400235815,-0.8834660759343094,0.905103998587429,0.0
0.09598192878950576,-0.06117721229921942,-0.008624461153881378,1.0
0.920720213154574,0.06292660416860368,0.5583869732900039,0.0
0.8731720868461426,0.49008644011095454,-0.21462439705666567,1.0
0.009786210724404233,0.6351529463539816,0.5211361708408976,1.0
0.9968070639873817,-0.028937030948382902,1.0178816917180673,0.0
-0.07176016351662709,0.02976113087032416,0.011719457388094996,1.0
1.2384032516683567,-0.09523014987196843,1.0166699956208993,0.0
-0.47597304808724294,0.49680908738878904,-0.5066447506041644,1.0
1.5505923227170972,1.4329169875409964,0.7139558386937173,0.0
0.2349991753199025,0.26195125015263665,-0.18277491102295615,1.0
1.1890583614681893,-1.471982781296994,-0.6739048198948902,1.0
-0.0330547382274752,0.1916867794723305,0.04598751665195436,1.0
0.2750779617651721,1.1316973373193355,0.6901628651616976,0.0
0.28975497295460306,0.8825069467132581,1.7815890190468284,0.0
0.05513111236500933,0.06378585184129652,0.046213835629085764,1.0
-0.9504253894591206,0.9635750648852206,-0.1550661563578206,0.0
-0.7103618965375773,0.10346491896826188,-1.4565930683098711,0.0
0.3428994282773393,0.6956755487757946,1.6685833549951776,0.0
1.5810267067351185,1.2465629287798228,0.7963268095088307,0.0
-0.3227796949285356,-0.41716016180507026,0.9446510892167714,1.0
0.09385006001082255,0.17484468456166238,0.173656304666819,1.0
0.09541761986333545,-0.12843754315373368,0.4465546487616906,1.0
0.06904620641428567,0.21965438472408924,-0.05338278217509673,1.0
0.2723521474812734,0.3155723936700141,-0.3434844156968855,1.0
0.5920039566603383,-1.4442260205063366,-0.7522804786140183,0.0
-0.032088577795862265,-0.08600173364986452,0.04982679454324847,1.0
-0.010096513982463617,-0.11701314494233311,0.05819193639582393,1.0
-0.7869448482662394,1.7510462306201555,0.2613420058348596,0.0
0.34139139872982527,0.33678258617065276,0.2895095951984764,1.0
23.776917174367775,14.271496963200043,15.932602310833648,1.0
-0.009845192600414547,0.01634314996381522,0.03063688872765304,1.0
0.2604030591158438,0.1188058295040429,-0.083942839719154,1.0
-1.1100100411856868,-0.1318199970204527,0.13755219649633826,1.0
-0.15229508514627313,-0.008751690228161961,0.003245992964835775,1.0
0.1326359995173794,1.2592081948699738,1.0404352582740508,0.0
-0.0034046139277845574,0.1517874571650385,0.3631800845337223,1.0
0.011053376060328524,-0.5036260470780877,0.4624777838942604,0.0
0.1370438512258252,-0.02797438149321198,0.15131450614147204,1.0
0.10565587321922937,-0.11809596820884392,0.06997896294468285,1.0
0.3207098887428661,-1.07803874526876,0.13631578212921797,0.0
0.6276452510946946,1.8237247926347817,1.643276235646133,0.0
0.6767859443430786,-0.10758277965220236,0.6764237229898216,0.0
-0.505317503310749,-0.18962477967366856,0.05566620454696338,1.0
23.909658986613458,13.08746845660231,20.342856984207188,1.0
-0.6297450039597718,-0.08808112418137108,0.5729386473271885,1.0
-1.039531568074226,-0.8153359834865532,0.03218570185419334,0.0
0.4575637170429092,-0.028307495821028525,-0.05276871596399455,1.0
-1.4847376634986806,-0.09600678784234461,-0.24981120161106996,0.0
-0.08445178560521105,-0.9671618089765877,-1.8597417580353244,1.0
-1.3478011786264723,0.08833617000330085,1.7461817067706977,0.0
-0.025946978128467357,-0.9902670876842796,-0.9385863727653925,0.0
0.0956906400455435,0.5048742877753859,0.4347662028580606,0.0
0.4279802084206385,0.4940482716084358,0.033494388186798285,0.0
0.23402683277981878,-0.2781108041081048,-0.22195905169488708,1.0
-0.15393306078161967,-0.9396906641201525,-0.5651987516629179,0.0
-0.18394943486789783,-0.11748261642944002,-1.112430677703401,0.0
1.0994316543143658,0.071887422088073,-0.3045301220162915,1.0
1.3733622636686311,0.6664182645981062,0.9064796740984157,0.0
-0.9129466869732995,-0.7649397204443843,-0.35378690751674857,1.0
0.23302585072679688,-1.3007496422817388,0.8591074534577086,1.0
0.13022763674446755,-0.03024308472803264,0.29398022570379656,1.0
-0.183758456852515,-0.1415255837151307,0.1702468475879868,1.0
1.104096513412216,0.4873429509248136,2.7441860086493595,0.0
0.7552671183139441,-0.21124033019264704,0.278964920784428,0.0
1.7331648449192694,0.6934509728591052,-0.980441474075884,0.0
-0.8717858871848808,0.4958428434064066,-1.7982013862844224,0.0
-0.802713300691988,2.11998325975999,0.6428783275762862,0.0
0.11845406047417505,0.08379661554738625,-0.025908369406166493,1.0
1.612582093216274,-0.1330647033918029,0.04620844068833757,0.0
0.15206674372273027,-0.14033475265949377,-0.0013200290302039944,1.0
0.22250151428522866,-0.06728781321409857,-0.06724567766853731,1.0
0.1502171537320929,-0.0273619610098574,0.024905989272948893,1.0
-1.4150071867474923,-0.5349931809685364,-0.6419880713612369,0.0
-0.004085218188483788,0.10173467120132218,0.2840200110768737,1.0
0.9780816435120077,0.05077046503923788,1.0511541819449643,0.0
0.03265137107209147,-0.17549173646955143,-0.09654068422946366,1.0
1.694221920381937,-0.3241851878472468,0.3987214895275738,0.0
-0.210364860620072,-0.18304692321774776,0.11910320286902593,1.0
0.103251924185481,0.014787498661040697,0.07604295853276297,1.0
-0.5375147915249336,-0.5865485198742821,-0.8238708642488233,1.0
0.09247622017702084,0.027461850550600315,0.009263430042600482,1.0
-1.4865414706336293,0.5616016880671441,-0.725527361026434,0.0
1.4426337162830651,0.8936368997788336,0.5576196257977366,0.0
1.630205013422696,-1.7990129414765672,0.9833227834936543,0.0
0.07537957387458061,0.03853727915150743,-0.11271779221115699,1.0
-0.6586088553329849,0.5940704876903501,0.6921769056110872,1.0
-0.7697565365429356,-1.6173163667866026,-0.678112560038937,0.0
0.3474081623394034,0.09436719565592011,-0.7658611909806324,0.0
-0.032321999740888646,0.01994961183324446,0.08222410242552143,1.0
0.3247752920403195,0.27481288784817554,0.11111792556083054,1.0
-0.09616122914908587,1.078268775509625,1.710896297846579,0.0
0.13041965795136357,0.4339413377559883,0.21949573414165502,1.0
-1.0302363012615476,1.5302104353763606,0.6031103766179283,0.0
0.46149702975154344,0.31328887713891634,-0.05564439195528235,1.0
-0.11837997844194181,-1.2984701196141262,-0.5032701824921152,0.0
1.0753420839286605,0.9239793410796243,1.9643933729888743,0.0
0.7168444636619452,-0.23438370912083534,-0.636293345766369,1.0
-0.052646024500232175,0.3576456457136496,0.9429647585252836,1.0
0.565363331496036,-0.2660221609027751,-0.1304873270806573,1.0
0.26998413235006713,0.11313241636253224,-0.4657115452038649,0.0
-0.7501559715653068,-0.9118042733483165,-1.0359670855877379,0.0
-0.3956561825929212,-0.17914382691064296,-0.5797873448619101,1.0
0.360649213139415,0.7357864284455962,0.01659790902711506,1.0
-0.5341807829789658,-0.22459673897770627,-1.4580741860785496,0.0
-0.8694627164060661,-1.8321198998982455,-1.1958106774406763,0.0
0.039559501811900044,0.7327241413927008,2.0129521050591443,0.0
-0.9522424498651929,-0.0801017120623565,-0.42606485518209414,0.0
-0.4289606760719709,0.030824896362465146,0.3189261061379885,1.0
-0.013510924395774336,0.17458545745585785,0.013331213000788737,1.0
1.6314203091933432,-0.023629419691589056,0.35871438308874853,0.0
-2.183833437898808,0.5606664975395611,-0.46675155125447737,0.0
0.10295105309466428,0.24230954801066343,0.039234928577156915,1.0
1.503752410868738,0.10458337442370705,-0.03455307480368025,0.0
0.3027433499251665,0.5494543335703737,1.082355156760678,1.0
-0.8034310448705809,-0.1243319040302242,-0.22830674832503794,0.0
-0.7147260831677028,-0.7993358718094513,-0.13779363910547102,1.0
-0.022472487243444583,0.1436308077676075,-0.3132950696532105,0.0
-0.49174150393813054,0.7132448532976039,1.076524844566244,0.0
0.44323369873529006,-0.6028506805151151,-0.9262985380232096,1.0
0.00849337968887093,-0.11701117994635207,0.0027017064099231925,1.0
0.428022224818209,-1.3801973120364661,-0.3742167873429725,0.0
-0.10227471168610053,-0.5432722552497917,-0.2435906832138174,1.0
0.06610385869201242,-0.06762024000296728,-0.124092126683989,1.0
-0.02522382411117874,-1.5921047706312867,-0.7363960090388084,0.0
-0.17662148464946698,-0.052053701662187646,0.0034135069879017636,1.0
-0.024425060095094438,0.002253260660793248,0.03287501991931969,1.0
-0.8063091559163112,-0.4330329519461053,0.6810587636703631,0.0
-1.1276313230903148,0.394896203704588,-0.8988358749821553,0.0
0.731078855220579,-1.4943932762430847,-0.7419829412866881,0.0
1.4124600373200544,-0.6897016114794341,0.7271926139152333,0.0
-0.9615609618495797,0.1525953054845859,-0.10506956471457995,0.0
0.3179031322236602,-0.021449489838603394,0.25263001132622864,1.0
-0.2696233085537872,-0.49925852233791623,0.0917989163557715,1.0
25.682688983440087,16.872440746490405,27.341481461071133,1.0
1.5179116514143018,0.28290629603131956,0.6605118366922303,0.0
-0.15596027074892888,-0.2587823979028928,0.11514366977370445,1.0
0.04267723071391108,-0.045186450413170196,-0.11244323409881435,1.0
-0.09408079199865099,-0.49292641420525096,0.19513628169452907,0.0
-0.009822033756267959,0.7123803645082114,-0.7833893426981311,1.0
-0.08734313588558322,0.13116580978759332,-0.764949829325102,1.0
0.6099783023770341,0.3341998145633702,0.2281466515876827,1.0
0.4679624198171385,-0.9958482252044252,-0.2739544706748226,0.0
0.5453224129898444,1.4340947636944459,-0.1455289734138634,0.0
-0.09304309484783733,-0.04289704383118259,0.0508535545754209,1.0
-0.2511620062859218,0.21824304466270902,0.795806568059006,1.0
-1.0297095573373551,0.7562585484606882,0.10937426089729492,0.0
-0.019054457466334638,-0.15414912909729764,-0.17262465703844734,1.0
-0.9964178631541948,-0.31395970660567996,0.14920911678523194,1.0
-1.6332412952415685,-1.6089829396600686,-0.8354735041254813,0.0
0.05511833492196978,-0.03180399433160332,-0.1409487482036882,1.0
0.04614321041702282,-0.26978077667693556,-0.10676358510856146,0.0
-0.08961920712792652,-0.0440157100647797,0.1129680680224557,1.0
-0.8635431375009138,-1.4007220372411138,-1.0267280224894555,0.0
0.077624283745724,0.021932240209660257,-0.06662820849385863,1.0
-0.23945748696269667,-0.13969666351844548,-0.2460122151172389,1.0
1.0828596614719825,1.4811758126038232,0.8875848406040527,0.0
-0.9266342319016845,0.7691317338980315,1.4999652864814466,0.0
0.5004346771316851,-0.1587238181725778,0.541391781386436,0.0
-0.650411355944989,0.06628898061135442,0.6805634218317864,1.0
-0.07014726232880113,0.06355953526184618,0.05870199853336373,1.0
-0.6508726268586739,0.6162360389185704,0.20887290810139408,0.0
0.6594715398332116,0.21603561573450736,0.18622795942038195,0.0
0.01775101272421072,-0.03876322715840145,-0.07979608981530362,1.0
-0.09506752416822463,0.020276432151620293,-0.1862521106486702,1.0
0.5367115552023851,0.37510175805013707,1.2652298567845328,0.0
1.042612226586077,-0.09631554136009568,0.5127904307678217,0.0
0.8974524401512474,0.854242251494322,0.8748109233106954,0.0
0.21129544649903498,-1.508146220553283,-0.6840722663819603,0.0
-0.2242198140027792,0.22097577254613815,0.13819797391377814,1.0
-0.05598108161882312,-0.09607438741426637,0.06592278118578121,1.0
-1.7354557278960223,0.23382095053630844,0.362069623098783,0.0
-0.5554175082242517,0.03517446955221121,-1.1898408695031253,0.0
-0.24322547966720834,0.33806465599058166,0.5231676792995061,1.0
-0.2664408828535454,0.9445326902612788,0.25286810107484103,1.0
0.059043181124083334,-0.023214982649775267,-0.02387014283414537,1.0
-0.1528975347573725,-1.1780508864260582,-1.8343235775694269,0.0
-1.0625479599859342,0.35683679101721866,0.24254906820706534,0.0
-0.01664539777847026,0.0443039078375045,-0.1411881055979503,1.0
0.07527077454276387,0.0958703409397093,0.049108087589627925,1.0
0.30565707189694247,-0.4645034531394215,0.07062923779219979,0.0
0.11020787466492424,0.12606896336581103,0.09434371403739485,1.0
-0.7581237415478028,0.47936443834427545,0.5261851479367649,1.0
0.07377469694564515,-0.093741532254908,0.5110886939141513,1.0
0.08617235370221893,-0.02781183827128307,0.050456074237591936,1.0
0.06396670884567585,-0.5689349770075025,-0.0004320686715148399,1.0
0.38813055466025126,-1.2477590211047327,0.7850952976866347,0.0
-1.1585729981586343,0.6000299145289356,-0.91420960575203,0.0
-0.43286706058393987,-1.0491105394445381,-0.3983341798735175,0.0
0.6091637768165687,-0.9805993714357747,-0.09512433708937673,0.0
-1.5659389372912802,0.7378068540092014,-0.040030660002225604,0.0
0.03142523765268963,-0.44227146766163905,-0.5549527422791379,1.0
0.09588847905684826,-0.05664580453055471,-0.048313605916117136,1.0
-0.36726728363018873,-0.07836320519072773,-0.4351793996932334,0.0
0.2817113429494119,-0.22523593638852413,-0.5634824254077504,1.0
-0.17766867670395525,1.7315571244475947,0.6752217644294337,0.0
-1.0317558692013613,1.4685058173060832,0.496917088228254,0.0
0.020779083235251142,0.2029443445832875,0.8303582672542634,1.0
1.0416332472942462,-0.25914581524946556,0.8170274591877129,0.0
0.24457286435331405,-0.8960719986720599,-0.3706490841134517,0.0
0.02912620585630543,-0.6543418988176577,0.10024081032739507,0.0
0.5499296613675256,-0.18415621056004516,1.3972939041535424,0.0
0.24073641682522523,0.2320724773883987,0.2394110041052717,1.0
0.2442991754659549,-1.0059284928017433,-1.07071415097775,0.0
0.021520254828186623,-0.1413010489362828,0.03732335347276509,1.0
0.3460983235171121,0.4311347188102112,0.12855709712785085,1.0
0.49603802846472195,0.897958856756229,0.28519679416346355,0.0
-0.3465882172008031,0.5157675710863464,0.7259900799643987,1.0
0.4108277371651864,-0.030504478518165786,-0.23144023653015436,1.0
0.5009995689820762,-0.12232050227120406,0.07610723447794622,0.0
0.7519708215171444,-1.1240866308801594,-0.2912868649813487,0.0
-0.18287746319657597,0.0679129158275949,-0.046576836191487905,1.0
0.020585217364212746,0.8975961807978021,0.6043291336506761,0.0
0.995182926129512,-0.06038789444182252,1.3021411621088332,0.0
0.274517166550842,0.12850250622227452,0.6077881171219021,0.0
0.40153181897846996,-1.7910701205426947,-0.520478424209805,0.0
-1.64534344355629,0.4846864273336121,0.9473504114515919,0.0
0.15572655070854194,0.011573335067604228,0.07078641287183167,1.0
1.8589180343794391,0.786807368820343,0.8649515626842388,0.0
-0.6487388567054949,-0.5348983519293604,-0.7142307935959926,0.0
-0.10158922290407235,0.08434399974802487,0.015887664320667474,1.0
-0.0009513025203711378,0.08194264618508078,0.12284451932342605,1.0
0.9886411711926795,0.948162457031077,-0.02982819180601648,0.0
-1.087397427707169,-0.2082946516671953,-1.2640160825930515,0.0
0.051879375789744046,-0.09075105287930402,-0.0163256550125581,1.0
-0.11069808940261971,-0.33197572163963146,-2.250890394399308,0.0
-0.6372764057068874,0.8011146303988063,-0.4441092910694301,1.0
-0.07586042321768864,0.038153533397794204,-0.040769020620299266,1.0
0.6984583942554556,1.1217204707245028,1.2132314347920325,0.0
-1.7932844214940333,-1.2083549356454641,-1.8180588080032756,0.0
0.12722621662533823,-0.05094265488993441,0.09397916164442999,1.0
-1.0279017471655838,0.702969453998994,-0.6189564574046439,0.0
1.3361484085870483,-1.3398082780790892,-0.16012534679762314,0.0
-0.4179095982603266,0.9633145867542937,-0.0911317856587716,1.0
-0.1997974172709361,0.11315853723472227,-0.1098339792011321,1.0
1.6937452001062492,0.009948228368994672,-0.07436543132486753,0.0
27.655861463614613,14.440358221952158,33.2025734026783,1.0
0.13203957810164776,0.023473313125906323,-0.15890319117522522,1.0
0.5159265457304122,0.994020947823601,0.6953436319468501,0.0
0.07315594478353378,0.05695224295751368,-0.01811327947042415,1.0
1.404253536384253,0.2570208962308325,0.17869748393690543,0.0
-0.010003476189252503,0.04377642567541394,0.08388685552474663,1.0
-1.117292807429685,0.22234485409074556,1.23209429905843,0.0
-1.6607286000912536,-0.05088978764057496,-0.8145492806793285,1.0
0.24345874019054164,-0.1857972035682488,0.058527164279487065,0.0
1.2935843707271117,0.9240320320754346,1.4930027900881964,0.0
1.3254007424281453,-0.10066469869633293,0.8910214400028367,0.0
-0.06930768894085525,-0.10916846754385505,0.399264983637207,1.0
-1.0793528704164128,-0.613586521228163,-1.0231166100914513,0.0
0.25884107907067566,-0.5247869181716444,0.22004014712755618,1.0
-0.665903968104925,0.19630677704677452,0.07297636086311617,0.0
-0.11130410717192518,-0.025216103495551503,0.0573112919250621,1.0
0.05494670554074102,-0.18194831800367486,-0.22190721225180088,1.0
1.0922234462678873,-0.4581058367447529,1.4682631945775126,0.0
0.005294313089656431,-0.10680557437428467,-0.021123566668999214,1.0
-1.284134342445656,0.12174637940375362,0.03732934106973307,0.0
-1.3417798031580015,1.414612815147874,0.8813253777708265,0.0
0.2851349863087904,-0.007005693642058275,0.770108119328563,0.0
18.447772930709156,23.54135627467944,21.44396606459539,1.0
2.3426165830215258,0.7410870130101892,0.18246302304702933,0.0
-0.6658926522505209,0.3138712332162308,0.13638508129613824,0.0
-0.10950983184261008,0.3147766487706488,-0.0345083074425623,1.0
0.6673026001094299,0.5828955809151167,-0.1492764148765219,1.0
-0.6562741699743804,-1.5953884665699642,-1.2321102490821416,0.0
-0.08599285729583826,0.011836748259088897,-0.12004796323806406,1.0
-0.6657094051230593,-0.32366390737587863,-1.4491017213631454,0.0
-0.5213320323415203,-0.24637638907223416,0.6504684649363575,1.0
0.8934696763287651,-0.6468911531975539,-0.2365363265099686,0.0
0.767157206167929,0.7829966924738027,0.6768248304722627,0.0
0.39543113241024075,-0.5340313400235703,-0.38946274071477077,0.0
0.2174850464284949,-0.035727247775778785,-0.01913305737479395,1.0
0.08701008691104052,0.2310046082599908,-0.7594593049715477,0.0
-0.2625927130062772,0.006183022696646697,0.024380150448008953,1.0
0.07576784807151044,-0.11385134864953149,0.009213259124028182,1.0
-0.9498242544927369,-0.6534034053971894,-0.6934025592882714,0.0
-0.1627992337360714,0.10541359110651546,0.6286005569352239,0.0
-0.0907213625860756,-0.7075976019400342,-0.8700610999636031,0.0
-0.4597124889079439,-0.33875134817818464,-0.7320206779733057,0.0
-0.9621876677398304,-0.7881622108489768,-1.711743990005616,0.0
1.2191150386994711,0.40244933308991,0.2941987345803865,1.0
-0.023711845362748733,-0.011983491158338546,-0.12285069748529966,1.0
0.02567861900761669,0.31190505065460783,-0.5564693990554334,1.0
-0.05779578973204759,-0.12158888193834576,-0.30717625450877867,1.0
-0.35024606825627747,-0.37052902459228204,-0.04504026067234958,1.0
-1.0139420067556462,1.1295880888476164,-0.4865142063165218,0.0
0.020771192313656338,-0.10110297318136074,0.12593563496985646,1.0
-0.02502433016914874,0.04487030973862702,0.07438101793222918,1.0
0.6327948727385577,0.8234868017064748,1.5098334273393232,0.0
0.9696284200109779,-1.7722288146743412,0.46328557260322695,0.0
0.024916383613708126,-0.0866048323682177,-0.0004395853317985569,1.0
-0.8354406177102286,-1.0115310230207066,-1.981017457049257,0.0
-0.5343093176554266,-0.38990887574368394,1.0399623049051974,1.0
22.501677484779766,16.989362642916188,12.642556652233406,1.0
-0.020775426216738554,-0.6491967139935813,0.31617965283288757,1.0
1.0402739240563235,-1.4535656578667373,-0.10008573678437649,0.0
-0.40326421486293995,0.47905806558188574,0.025815574533300634,0.0
-0.24125138390281992,-0.8768097143370706,-0.294199512889084,0.0
-0.06892280687749167,-0.04153694584230145,0.10690068500274444,1.0
-0.6713469885355394,-0.03278122913059684,-0.5229839317726707,1.0
-0.024442609871335962,-0.12015667415991438,-0.15484031639359397,1.0
0.9448009909387073,0.8104968034847361,1.8459338197840855,0.0
0.894992886123452,0.00714546099642599,0.23965790200215498,0.0
-0.01265934347183648,0.06280789537457551,0.08979500706702831,1.0
26.214810987905523,18.79038204687903,16.928145813194924,1.0
0.3222934627152267,0.05432430444608793,0.8952093467305225,1.0
-0.11535115015225808,0.044753421837253914,0.2500322085580111,1.0
0.44585333661989635,0.8578931743612003,0.8152326999080816,0.0
0.7762633224130853,0.7344753578340681,1.027096217090075,1.0
0.429572805119121,-0.13932194548666044,0.9473444277086915,0.0
-0.06749031444933498,0.09486725068981178,0.17183029748041245,1.0
-0.1688492856062757,1.5833353591232664,0.6507458056610249,0.0
1.3030623508894248,-1.283369248931122,-0.03214704895801279,0.0
0.13855754310490864,-0.6281414765045915,-0.4160437143833373,1.0
-0.4906703527570656,0.03852927751068439,0.027884975436988087,1.0
0.036815757508260896,0.5113522631479271,0.7977510818629289,1.0
1.4196585945825628,0.24372797434877042,-0.38808544110691445,0.0
0.528132895890906,-0.10397874889661224,-0.5290793332775805,0.0
0.00966554846221391,0.3242140388717653,-0.3523586032928723,1.0
0.6637468153287508,-0.3388243313390892,-1.0933707155364192,0.0
1.1381627025396344,0.3830295444376368,0.10779351060973857,1.0
1.068877530664958,-0.18595401539066553,1.062844451961895,0.0
-0.5102152305696942,-2.5084600025173063,-0.7543290321955228,0.0
-0.0840566675466271,-0.6855899485634988,-0.41342610033152655,1.0
-0.5392478487751053,0.07029017633744639,-1.9213690286069203,0.0
-1.174757660314686,0.33422505724761614,-0.7222050357745331,0.0
1.450869233976242,0.07590046442131217,0.13298440459918012,1.0
1.8573032541393377,-0.3413422282845048,0.18919572855808364,0.0
0.19571275785384143,0.6859828093917484,-0.4754587237072943,1.0
0.44872029543100295,0.3105717310764554,-0.4422582176556765,1.0
-0.08072069337765958,0.07972762859067058,-0.04363676101843714,1.0
0.371524197446384,0.716358857362961,0.9000824283933869,0.0
-0.11557335740638781,0.15589014434894066,0.2933916773308414,1.0
1.0780230462742053,1.4101677368279297,1.8704459047818562,0.0
-0.5135004234072581,0.36881338710590117,0.07403895756855318,1.0
19.42162993065839,17.591229029917994,29.31296798462517,1.0
20.549227039598147,26.50208125999137,23.054268973231366,1.0
-0.2196393102525171,0.9509663504209124,1.0851464958302954,0.0
-0.7712413659470118,-1.2441457513694734,-0.8564937098193595,0.0
18.662744045924153,18.94889009981434,25.95914383762007,1.0
0.28650394040899674,-1.2585008732813832,-0.5165531240247049,0.0
-0.14171072619159528,-1.0090696384309705,-0.05451330219254835,0.0
0.09279665327013911,0.051835725370056464,0.026922130295887154,1.0
-0.1787433570574859,0.2582648235126695,0.30887793712517214,1.0
0.6725358328906051,-0.07946235595130788,0.27086217088732456,0.0
-0.9724197414240134,0.5586857533833993,1.1297757789330838,0.0
0.28406859432700476,0.5865995367338579,-0.7441314019712834,1.0
-0.1296326928552014,1.3429450639340872,0.3366986523441875,0.0
-0.3134468669271737,-1.383202548433629,-0.035664670795774345,0.0
-0.5567083403860693,0.030334613473973593,-0.3831358813185948,0.0
-1.4855299711372103,-0.35862646779420115,-0.953007333903338,0.0
0.5515270252752973,-1.0888790371916097,-0.43321896373067603,0.0
24.812354087079605,26.19170065867197,24.17097358096348,1.0
-0.45338265509947173,0.5209238295564382,-0.27553188403369433,0.0
0.27832934446426144,-0.3790065830667059,0.33182699191071924,1.0
0.8794419484196768,0.19493965109979383,1.0463389618560506,0.0
0.01615021511974576,-0.10442761542906168,-0.022251412731156828,1.0
-0.7247197844424145,0.6419783728163836,-0.0766747985682076,1.0
-0.44362740903452846,0.8028186097547317,-0.7460100861201437,0.0
0.11363234974504755,-1.9294576371635364,-1.3935568397903513,0.0
0.01565094564172317,-0.05675088161116677,-0.03809335393518898,1.0
0.3557887194435869,-0.7886160905631987,0.9838800970177988,0.0
1.4104920708955873,-1.0827395706354452,-0.704364419454883,0.0
-0.5996715344947168,1.884439874506727,0.3358575711542646,0.0
0.06575824684934188,-0.03646077647054679,-0.14030130473207375,1.0
0.3789985022847936,1.247839049141699,-0.005218376213418807,0.0
0.09119518778554567,-0.1720843320565753,0.08080273342658967,1.0
0.32934967710224755,-0.16591441975109927,0.0026374547650858237,1.0
-0.08823633061713239,0.04884808829101134,-0.038474846356698574,1.0
16.694755411315302,19.61865936251455,28.074632811885767,1.0
-1.3300630713507189,0.3656213695975514,1.0506341393656236,0.0
0.17819280130886805,-0.030556958574624777,0.21562403558147036,1.0
-0.11751946908246182,0.023491962835009976,-1.3764921816652134,1.0
-0.5632735392739945,-0.6502478591644789,0.26823951772840027,0.0
-0.7503191271319987,0.8230475354271346,0.8220131077857706,0.0
-0.011130220891575004,-2.054850488443086,-0.5959109790885377,0.0
1.3024049180796775,1.0496240632433387,0.8245835375327804,0.0
-0.04364856950837384,0.02923427602387392,-0.10063366043897684,1.0
-0.07078579362976581,0.8009187803793799,1.2772155123570148,0.0
-0.06517880460053539,-0.027691012013132663,0.05665496198065763,1.0
-0.5644705893163559,-0.09520625113816726,-0.10052985252390245,1.0
-1.462201047667099,0.37994159690082396,-1.0322064777283715,0.0
0.1257539860713795,0.9580007984985289,0.9789216694180294,0.0
0.2588727087884072,0.5506705871990673,0.03453649849326646,1.0
0.2826335995302912,1.0793964169768058,0.8215070803937,0.0
-1.0611781485631797,-0.46573329093711835,-0.41874624906185787,0.0
-0.8465172537698653,-0.745142184056617,0.09990294080171115,1.0
0.0128687304779915,-0.1701134519038503,0.07278561882583094,1.0
1.0321599796355059,1.519585643959533,0.7951829001764057,0.0
0.1950410913649081,-0.9256790914894159,-0.11583686854515746,0.0
-0.025547088572556005,-0.1273262992025915,0.17066238565246614,1.0
11.712541079418777,7.833549770786677,16.327231843070447,1.0
0.5756159138642708,-0.23119736413469438,0.19370426666100865,0.0
0.06810600700831845,1.1550800073267156,1.5283911044272829,0.0
0.1986659676816859,-0.023364058888945705,0.21122516233437977,1.0
-0.039678499782216714,-0.02280258145293862,-0.06432276399461279,1.0
-0.46957847947963305,-0.9059240873205213,-0.6107589195647847,0.0
-0.8109385840936744,-0.2948073359979546,0.7121411972067568,1.0
0.16935748840871784,-0.1475015923467676,0.3379051371897211,1.0
-0.26034613983467725,0.189511803398514,0.19515227652810332,1.0
0.07458575670707965,-0.04486944455812059,0.18745489118819525,1.0
-1.5460153673890518,0.677176047967514,-0.49386518645854904,0.0
-0.1817698479784664,-0.0904499891753929,0.0331335332700409,1.0
-0.6585543718330695,0.3233792149128484,0.5045245345094862,1.0
-0.023728525722274994,-0.010756414986898001,-0.03903872785775745,1.0
0.5914984288103691,0.5466888513010014,0.914362189096398,0.0
-0.7817815003556148,-0.6891470760038696,0.3256166488836144,0.0
0.10608223343909272,-0.1367449736234961,0.04465339613227348,1.0
-1.4567992331309974,1.985832713095172,0.6817333997077935,0.0
0.04588046931516343,-0.7690314627049171,-0.8081418920738143,0.0
-0.22741907304898676,0.03379560989284145,-0.26904150431005724,1.0
-1.1891427537917894,-0.2077643939258961,-0.8093767213607928,0.0
0.021953094516324774,0.12048129491445828,0.1572457128439506,1.0
0.35449337219284854,0.2966818167159657,0.4128645973374327,1.0
0.33425541169896733,-0.5316434211469209,0.45636564386567474,1.0
0.7998887391064683,-0.5739547415375523,-0.7907545962563157,1.0
-0.0025078787435136307,-1.3438875266849308,0.3120581822433192,0.0
-0.028576302918480456,-0.03534506522148932,-0.024564626961602082,1.0
0.5089197452348369,-0.057939118684286375,-0.4136022226740429,1.0
-0.33258123295705494,-0.3043680425986879,-0.5839418893772663,1.0
-0.7023665657761741,0.5919182682752475,0.3031953268193481,0.0
-0.2308457277205695,-0.481238992576116,-1.65536245453359,0.0
-0.3557013654493676,-1.4774270425112794,-1.0525397571213426,0.0
-0.06604216078144158,-0.09025157131321537,-0.05985814199581601,1.0
0.07370351052229829,0.39910975625613226,0.3875432362798926,1.0
0.4802858241778446,1.2004002252938044,0.30635775680900246,0.0
-1.193621486136648,0.42661178568573715,-1.6077887913107323,0.0
-1.2301326832557997,-0.33271241656567585,-1.294020305208488,0.0
-0.29249385331634997,0.3788521337435128,-0.12911168293075445,1.0
-0.080287574182458,0.027950018554769574,0.009404059061158076,1.0
0.5105206211700271,-1.3200986027889376,-1.7307870828047562,0.0
-0.8687910401740867,0.6145177805501206,-0.7841079638272733,0.0
-0.07740504875566073,-0.029265113211663935,0.029326510200754496,1.0
0.14155062100271942,0.07133504330435363,0.054785076979461694,1.0
-0.9358593764679408,-0.10537772116885014,-0.7310847001188541,0.0
-0.0038918209439889094,1.0492428850640216,0.3845692537523248,1.0
-0.07651981037090749,-0.01894703603736704,0.03050133562085849,1.0
0.35497990839884985,0.4971962425846442,0.9843209431884142,1.0
0.03887113115549931,0.8243782450691202,1.1255418334598104,0.0
-0.9351724260371314,-0.6496886800595383,-0.3833621610485112,0.0
-0.05803551469136069,0.968038671539163,-0.6484059454324133,1.0
0.012053785317946744,-0.013565215708790502,-0.06405505609883694,1.0
-0.2934554507650543,-0.6745251667120493,-0.880454341421088,0.0
21.660206654801215,13.100325473048429,21.334031518211912,1.0
-0.12886585915767818,-1.1879106985732653,-1.0519049597511372,0.0
-0.04504635562532952,-0.004343818762583466,0.11518991593988102,1.0
26.90331725551099,17.44662231017154,27.640431769800813,1.0
0.12977314677398732,0.03095859373402567,0.12803183004121,1.0
0.07108292626859564,-0.2983473135772794,0.4540479131440526,0.0
-0.08346042936377064,0.012071488818799062,-0.20632326933128065,1.0
-0.2716796737431411,-0.2360767074546099,-0.46710730515129406,1.0
-0.31117610159105924,-0.4299234181647044,-0.9771085138120446,0.0
1.4025849607065526,0.1469284625448672,0.9734854981051199,0.0
19.81343376234508,10.422762059716568,19.113371107618953,1.0
-0.19153874489067724,-1.5677736220467322,-1.4646747317173197,0.0
-0.4663772049803152,-0.3391515343968696,-0.5248633549032934,1.0
0.0347380199751767,0.23884438711889577,0.05179284976441104,1.0
-0.05541749696075093,0.3349383051982936,-0.20607690943591425,1.0
-0.02430837274846387,-1.6893191739943976,-1.517131597482381,0.0
0.034765543375847634,-0.054038782348746185,0.12767161222036455,1.0
11.76605345451798,23.921762793402962,17.87527482916495,1.0
-0.3067649581621165,0.6387144770257556,0.5500255772947144,1.0
0.7146919547984999,-0.7477751461329298,-0.6846424978135166,0.0
-0.4520708593475676,1.8477323157396397,-0.6550749085513499,0.0
-1.3661498651549393,0.761137770112083,-0.4896860004717905,0.0
-0.2529987481428189,1.023773387130927,1.0133863717067366,0.0
0.5040569323985914,-0.6322469552284172,0.05708045792552644,1.0
0.37740080279010324,0.4749832552070722,0.44128126155310654,1.0
0.4059262733250259,0.45156899538470097,-0.08238604559517228,1.0
-0.5115022102824739,0.6479076679864,0.9358646258124881,0.0
0.6784274001005214,-0.06171186003301724,-0.6723694503429758,1.0
-1.450304412255797,-0.29568024383698904,0.6847221907815878,0.0
-0.047779861047154606,-0.07440337476659703,-0.19291796229354663,1.0
-0.38827349083872886,-0.17728070573952695,0.35748307573147103,1.0
-0.1332942606214178,0.6450245307370007,-0.6924534160966274,0.0
-0.0530606609405038,-0.04927061428896867,-0.1591081303150054,1.0
-0.23319824362588829,-0.15566742308360113,0.819176567104224,1.0
27.606682432491176,8.485352011897993,9.725406488163786,1.0
-0.6304842149555231,0.20796673828407092,-0.47500282639587105,1.0
1.1357704752009095,0.6076163472669188,1.3932430152639241,0.0
-0.7839726361216575,-0.35079338215568545,-0.27204860300804656,0.0
1.101796101586369,-0.0073407406429520095,1.5284117466325504,0.0
-1.6136911038764559,0.3881352274447998,-0.11522545134250428,0.0
-0.0006806139778257368,0.07605428615009077,0.13291788279019665,1.0
-0.6216054976999021,0.7512392211522636,-0.10314750294737761,1.0
0.6651901581866698,2.0870783876043277,1.4361313607504855,0.0
0.031303234517418926,0.13435439544287506,0.0318772005720012,1.0
-1.0027554012106796,0.13454846848222876,-0.06988105440485509,1.0
13.099659848780302,25.262040625017832,21.452375955653142,1.0
-0.11906829585260066,0.0051036575301260855,0.14945366628121615,1.0
0.9140501243161874,2.0304907477969283,0.749258882505011,0.0
0.007919095603588172,0.097368314690066,-0.09611981268083275,1.0
-0.6157912471996917,-0.6026980229939508,-0.08368244476328171,1.0
-1.0452749331505164,0.6626167292372109,0.7224321580666311,0.0
0.5419902904091204,-1.204425505202186,0.45902392248244506,0.0
0.5482735805488029,-0.7047672470693155,0.04999071404674732,0.0
-0.6990958341108767,1.0738238336290529,0.6516560265442719,0.0
16.968055372587823,23.43240439323132,11.518545308947019,1.0
0.9403032495159942,1.1471167734675676,0.9530856295367052,0.0
-0.03706942145869097,-0.1676074601716714,-0.05690678717630548,1.0
0.10234310053119214,0.6341003897462332,0.8512276561109835,0.0
0.4116114517694524,-1.2360893715849044,0.3489326616873105,0.0
-0.780598833707076,0.9329518232000744,0.39543159335194195,1.0
-0.32420673104376485,-0.009169646651254647,-0.07910579121333979,1.0
-0.1064040751914011,0.9085662338306374,-0.06160252320172638,0.0
0.597543754168278,-0.6671031223463257,-0.7516314906782715,0.0
-1.0244675394037834,0.22330828203450603,0.13971601301290368,0.0
0.91630626529566,0.46380610894988206,1.1667657600568204,0.0
20.34550827531194,15.384711324810333,22.328739145406903,1.0
16.241181371399446,29.96137975085734,20.03533917711362,1.0
1.0406185002961537,2.4015368124173033,0.34193917390754014,0.0
0.007982092893894966,-0.03708566995286213,-0.10448792024170775,1.0
16.680999969245537,23.63817501016015,19.062398636285234,1.0
-0.016942172857846882,-0.06315484192022387,-0.05795705901315295,1.0
0.5018134792935722,-1.3712502739703518,-0.5499320020573046,0.0
-1.3403161100056091,1.6289273013275782,0.8133599184970736,0.0
1.4071161279361266,0.7260045143684773,0.2042193966465369,0.0
-0.5066931287466929,-1.0482026005993084,-0.8106464809583044,0.0
-1.08874110797059,0.4583093124551722,0.29994701518198175,1.0
-0.05685468516092018,0.7058965738684485,0.9824979521125996,0.0
-0.50475074011246,0.15935626902503938,-1.6997770470713767,0.0
0.863379418491721,-0.8978585314442797,-0.12895767603877778,0.0
-0.1769811225893058,-0.0013132956744552249,-0.09585022145420784,1.0
-0.04624761396711101,-0.13364744177771612,-0.06564521129746398,1.0
1.1438032610375164,0.378605118361925,0.2472364843289609,0.0
16.285885131534712,19.315746021929964,14.652277340764234,1.0
0.3707116149372523,-0.0709483752944012,-0.023480805871186554,1.0
0.22166581118222656,-1.1956964465391973,-0.1965699425929252,0.0
0.16531575028690265,1.5980761903830616,0.5419629649260924,0.0
-0.1766889721070483,-1.638007364935877,-0.9650464752610867,0.0
-0.9972040549881275,0.6638642644583452,-0.11188915555498115,1.0
-0.746306317082416,0.20450536873299258,0.015527067426235415,1.0
-0.036427564304489214,-0.053326759967516325,-0.004152129670697213,1.0
-0.24138754262083723,0.03730902424750143,-0.5745666553216587,0.0
0.2575285939551496,-0.6239069934604989,-0.026639469461829046,0.0
0.010846048105113137,-0.7684034858158769,0.07121557491453624,0.0
-2.225198699482152,0.23708453038992247,-0.4908701026402212,0.0
0.5733393437345288,0.013069832532149333,-0.334000053002014,1.0
0.8372365658932414,1.0289173011764445,0.2952444990091423,0.0
0.857380303810919,0.5652613496838449,-0.006363415421098713,1.0
-0.036105398352633274,-0.2432016202764753,0.05719107029062492,1.0
1.0205762697981162,0.6250676391121559,0.731495908703672,0.0
23.645532358236835,18.034385489045867,19.72113100105835,1.0
0.37305551814312016,-0.39542104271448864,1.2731521274254427,0.0
0.9407794205027973,-1.174666729247203,0.3816960720337641,0.0
12.325739248402733,23.87656711983735,16.819944323259897,1.0
0.9193139756127158,-0.9868176704148146,0.007778658149677514,0.0
-0.6786583054502144,-0.8614905748329513,-1.2847830778049123,0.0
-0.6784980580051994,-0.23871932777179522,-0.21524237496924453,0.0
0.6100643597373588,1.2965096130780052,0.9891983021426984,0.0
0.7414022715301688,0.8656531182164245,1.5971301619787115,0.0
1.1212482377045787,-0.00019788886896926483,0.873452383429248,0.0
-0.8219780497970834,0.04700598443199585,0.24578682444549904,1.0
0.2382520599609531,-1.594022981409456,-0.7094197432280174,0.0
-0.2928103716417363,-0.5110172275778128,-0.797685954229032,0.0
0.010213955423266974,-0.03344132433981758,-0.14268113830169055,1.0
-0.10313659683530643,0.2408490124718771,-0.12358084022281533,1.0
0.4557299929329571,0.9389116363174389,0.35427218808730887,0.0
-0.4789464740090999,-0.14170737983270668,-1.4752991484717393,0.0
25.22599985938276,26.05119507192747,24.157984636234275,1.0
18.524295400517378,17.37842832298457,26.50147065537636,1.0
0.7910274043851436,0.10695431492631514,0.03145168832073833,1.0
0.0565858551100236,0.13324398602844054,0.005169206654405574,1.0
0.791873769566952,-0.48332140926736467,0.11541238991955023,1.0
0.12350811172356055,0.1838837792922861,0.5262622656625404,1.0
0.8951969817970451,-1.827484502447517,-0.23499919491281254,0.0
-0.6394295663762104,0.5701001659221371,-0.8237666534691597,0.0
0.1332372738164426,0.042382289138166565,0.09566569772084953,1.0
1.1400296419595037,0.24146282002863922,1.3993068318899475,0.0
18.72114737481408,24.8047979281295,20.073730622458246,1.0
0.4155880413725153,0.8016601103577482,0.37297223454047546,1.0
22.376348878212642,24.564472568820968,14.676101459112793,1.0
1.6890053585019527,0.19736191377236698,0.5646862202677241,0.0
-1.079251101253032,-0.5533331804345663,0.28286446550344796,1.0
-1.425239703467349,1.5762120655559324,0.306973448336328,0.0
1.7117443486892385,-0.9308532915127555,-0.39347152470961627,1.0
0.022505895587090097,-0.1105800621353445,-0.06159152547877096,1.0
1.1243333976661503,1.3704523423986206,0.1874858729425195,1.0
-0.8949400942273297,-0.6689673172483018,-0.41713142387884705,0.0
0.8217816803370709,-0.011741232912482857,0.055162449507274704,0.0
0.21600927233944037,0.740428554269677,0.02694785004595396,1.0
0.08563571854994603,0.08702080352985313,-0.06695514710731933,1.0
0.10175423932601602,-0.022968246498013822,-0.001492701162946086,1.0
-1.093024220208976,-0.5916137499706069,-1.4433465145322657,0.0
-1.1083370208241525,0.01981058692108345,-1.2438227055648727,0.0
0.1463173473572322,0.05294223979176587,-0.05930573137253197,1.0
-0.6812671709744066,1.0028623468490427,1.2416631202568067,0.0
19.638528329843762,15.02972640125874,18.24070540081941,1.0
-1.6652720950213311,0.28017946007223393,0.0918359325568176,0.0
0.09859264880466276,0.29953804036953036,0.6422658943221411,0.0
-0.6014554602388371,0.25590748854009127,-0.9506875475453553,0.0
-0.010540182727236872,0.029261697472089915,0.0771205209668619,1.0
-0.4287290154302991,-0.3830002526465045,-1.3178644316703723,0.0
0.6211725971982063,-0.5745572885249787,0.7869350399892344,0.0
-0.3703759953857925,-0.8119282511036882,-0.22761780044008004,1.0
-0.14827130771555402,0.5740328207689925,0.293140860534213,0.0
-0.5632132183602236,0.18650305160493444,0.2271048750031667,1.0
1.011379809166385,-0.023300533028271952,0.6469989933468624,0.0
-0.5686939601034394,-0.1380152345898611,-0.2639773662997532,1.0
1.1986055786737333,-0.344182074001587,-0.6201255998691881,0.0
1.4372606748694339,0.8162765828709256,0.44718085853648265,0.0
0.702688198231471,-0.44022349358305246,0.29239823927960396,0.0
-0.27103777974010224,1.2669347212147404,-0.6301785596953872,0.0
-1.7696668805671936,-0.2400706097077422,-1.204509068463804,0.0
0.4146593368975097,0.0036119367198399477,-0.9793887633173469,0.0
0.11102560192742184,0.13763818834089472,-0.23260823079903997,1.0
-0.22059603217072377,-1.6988336859190436,-1.054838397029134,0.0
0.7361795043683268,-0.030934778599051027,0.11739723785517797,0.0
0.2770082467297026,0.15239856399115095,0.11042972164317635,1.0
0.4656742677176521,1.0852846902655906,0.2669518759715277,1.0
1.346082695571051,-1.6257854577938895,-0.07438353409156884,0.0
0.10694367039085362,0.08785397876778661,-0.14070385359419313,1.0
-0.22280003400503673,-1.314258969775782,0.11550120381156956,1.0
-0.6673032844484993,0.2749084088270356,0.45715843897961606,1.0
-0.35209641718417406,1.1277565577735256,0.49340964901181467,0.0
-0.8474165470527522,0.41531132905451923,-0.12366621352776964,1.0
-1.0516823032772582,-0.6015231177786944,-0.4254859306339151,1.0
-0.1664530782589113,-0.0892404545556242,0.09281930937539182,1.0
-1.1015369653478086,0.2555645021264569,-1.2102725721801009,0.0
0.04858383855779366,0.10060454469796778,-0.09773855240727075,1.0
0.6425414148163013,-0.8413464897475083,1.5276008876327107,0.0
-0.7741250923339834,-0.3393628378870648,-0.6106242759122299,1.0
-0.03612182704334303,-0.15951945800184217,0.009159995001123413,1.0
0.806026460257117,-1.1127659852808478,-0.3598103549336636,0.0
0.981658793168931,-0.13660447159360123,0.403957060271635,0.0
0.032876675696405004,0.4942167390763283,0.655074069918135,1.0
0.24054821749290356,0.9073678473219121,0.08203023825257875,1.0
-0.5573408929285448,1.0947893239003155,-0.365856945473392,0.0
20.70741973112722,31.22786711376333,24.68832930414559,1.0
-0.5491511408131301,0.015538396290224804,0.012396146627091962,1.0
1.075440116111374,1.3640715273480901,1.3161768363343773,0.0
0.24016182086573173,-0.19854486228069676,0.10261957160961031,1.0
0.07308478566773587,-0.1851774746816812,0.26442721674871633,1.0
0.0003002001868780077,-0.06995931594347686,-0.061419699601563585,1.0
-0.07541871545671736,0.26817703448943714,0.003052964132781818,1.0
0.1389417861295368,0.030284077967622114,-0.03815392692071143,1.0
1.10662157873203,2.1253327726151054,1.744589067477761,0.0
-0.06134522811687948,-0.24952048976714686,0.9081511589852707,0.0
-0.7985090704730208,-0.0789517712528338,0.5955785567217692,1.0
-1.0160684106794047,0.26659106451958975,0.42614057865027344,1.0
-0.03876336057354301,0.5974601535631887,0.24212358791500857,1.0
-0.007629321026291451,0.08929301493048958,0.24637963876326785,1.0
1.1395824171746747,-0.131823379766502,0.2694441903801308,0.0
-0.05728212646465363,0.11437380387133514,-0.03130957131356767,1.0
-0.10918023802125731,0.06953547578468079,-0.048811366293738,1.0
-0.10295163866342939,0.5324711340696692,0.1488890106996626,1.0
0.26563354124375893,-0.06061988922352747,-0.07934511812267923,1.0
-0.3884728958149287,-0.511925666958293,-0.20883623049555242,1.0
-1.0496924691576408,-0.6740866435161126,-0.6139396427244256,0.0
-0.8740894598015937,-0.9907147433579445,-0.3825395490343395,0.0
-0.05112124051838232,0.08752272537127538,-0.08843113173498864,1.0
0.7873390823079838,0.7187343066888563,0.76285812016544,0.0
1.8361338175251976,-0.008172708421951183,0.4299988229375966,0.0
0.8326579588877565,-1.8927642657687391,-1.537180245565597,0.0
-1.5461007500725323,-0.19163320453856514,-0.774486294030399,0.0
-1.6417859693440164,-0.2088848333452707,-0.8852358092768053,0.0
-1.4283290178587587,-0.5847734863157414,-1.1907652523143188,0.0
0.8890230591229451,0.47010060986180224,0.2659396111596263,0.0
0.6400446240177872,-0.029256782479161192,-1.1523412350350368,0.0
-0.12972581736808098,0.03525877255283012,0.019738868954755046,1.0
1.1610747238797796,1.0113107431663038,1.3453865362532995,0.0
-0.10140889018047397,0.05351675235365583,-0.08209008700098246,1.0
-0.12399811144668488,0.03136438975501442,0.015181669649338007,1.0
-0.21655400274940037,0.0858015028702305,-0.039479330191311945,1.0
-0.08964171108144789,0.28125967910731364,0.7249280393963972,0.0
0.32243987385662476,-1.9121191559340613,-0.171915856252692,0.0
-0.04262143671034857,0.525430734454498,0.4380445462664611,1.0
-0.8281073630246957,-0.45963253808962906,0.316416909848933,1.0
0.12070386569064677,-0.4012991923078721,0.1739876083126524,1.0
-0.6088232147537677,-0.8491663589869657,-0.49634030448636146,0.0
0.8509816648891325,-0.28593014660763916,-0.10403968252163362,0.0
0.021373671157685795,0.01855516791040819,0.0669808633964237,1.0
0.4276387309878641,0.14146866069853614,0.5118242380315106,0.0
0.04360368483162983,-0.1436611153213519,0.22377179115576032,1.0
0.3632811265824473,0.15410113352257312,-0.37707180574720484,1.0
-1.5348278816974683,0.19405019956653344,-1.8224696366874558,0.0
1.1316094726162098,0.28466425666067124,0.26131990026083196,0.0
0.6777400701678323,1.8917608777124673,1.4726821093407327,0.0
-0.2760585245123713,-0.08804302104140407,0.11899304803604181,1.0
-0.23145884104489622,0.2856431692677674,1.0947884253655278,0.0
-0.2286351958434072,0.06480476519887113,-0.18900253543486487,1.0
-0.1196443117992071,0.5823849016653256,0.4896680308463694,1.0
0.026844690782437182,0.06129288420383409,-0.023930229627725813,1.0
-0.45067571563265896,0.12170972943001529,-0.2419977461624209,0.0
0.34588772127881806,0.8820609093257701,0.21481515068583695,0.0
0.38366042205862766,0.38384442310476174,0.4742853299942887,0.0
-0.9698840179823615,0.014754234877933259,-1.0521117425912696,0.0
0.11973960367791137,0.014514368704852157,-0.13007991250451847,1.0
-0.06274668065470564,-0.21661403630389733,0.28968436672856435,1.0
0.5590015992929336,-0.1169764879561903,-0.9857012161358831,1.0
0.8558870114445719,0.572475626237109,-0.21881681489549226,0.0
-0.09647223635951636,0.2013549573418641,-0.0714889176560614,1.0
1.508763729608009,0.3264960649613196,0.17280421868054652,0.0
-0.30571879260139234,0.4677069360346472,0.4376221883286953,1.0
0.1466484159387818,-0.07853335630400565,0.0020167662858607918,1.0
0.3746223219226689,-1.047941174858217,0.06789840995775,0.0
0.94910960414558,-1.0959664738095816,0.2591079707108084,0.0
0.03917171423952556,0.030616337460236266,0.06313776139734517,1.0
0.04771833625259141,-0.1441699202792051,-0.07052228551657207,1.0
-0.06012427499851615,0.013184642754816884,-0.011519589172611108,1.0
0.5552598298067567,-0.3601016566663131,-0.11301679723893662,1.0
-0.9004344822491297,-0.09310960282449557,-1.32460457410525,0.0
0.25203458054528344,0.013305922988382284,0.0548796743955842,1.0
14.610745286357323,12.82811822771793,26.58320743220316,1.0
-0.05131933594516805,0.029369005225329925,-1.1172784429551357,0.0
0.10204623090394474,0.005970330538854694,0.11467000654973236,1.0
-0.8858286767465547,-0.26432414846919755,0.862354931335536,1.0
-0.8848990713640805,0.5974562431404147,1.5859139652162462,0.0
-1.8343302818058007,-1.0624163522187378,-1.262705412965925,0.0
-1.1839985310667247,-1.208196362281394,-0.741392050783759,0.0
0.4752296565604358,-0.38979713233538277,0.48607366023097065,0.0
0.8095974786703655,0.2715245541505617,0.5600839194687454,0.0
-0.7163460249772655,-1.041648372145078,-0.8552415579533028,0.0
-1.3040351447952598,-0.18018212412027104,0.34442528802050804,1.0
0.2932689868653844,-0.9695222340726547,-0.12078947351847985,0.0
0.0944937977168092,0.8004047356527468,0.004588350467544772,1.0
1.1348431903039873,-0.6089078565364645,-0.2844087456361612,1.0
-0.2576243120328481,0.6868201068202922,-0.02620680727468067,1.0
-1.2536745627071484,1.2648802936491559,-0.011552066030888375,0.0
-0.4630223522462268,-0.5724145859207587,-0.15810761300421006,1.0
1.320451175684365,-0.7471850069829036,0.11190162104520616,0.0
-1.01364339245937,-1.776406309446374,-1.1315967747841658,0.0
-0.1268910766939702,0.0880096726971629,-0.11905464383788283,1.0
1.2695082795110086,-0.3951927485561377,0.337752642676007,0.0
-0.06218409385722207,-0.206564967025858,-0.007164477208172953,1.0
-0.1413364765144662,-0.029704135132238293,0.1164464998306471,1.0
0.0840652336240103,1.2887284246999817,-0.7225009253613062,0.0
0.26318965490351254,-1.006066974273956,-0.7027397142858389,0.0
-1.1183218313432275,0.33340387806790334,0.5070262648443383,0.0
0.01989350005875692,0.11741662505054051,-0.05613922137614141,1.0
0.7647942847598392,0.2590431530861114,0.06340726738826595,1.0
-0.11306955670654321,0.8329219194146253,-0.004677457335985727,1.0
24.268899086900245,26.7566902266023,18.834088942668842,1.0
0.4378396657570814,-0.20620527215461754,-0.6208755528233508,1.0
0.6970039599045903,-0.10135886182000459,1.8419569232024364,0.0
-1.5334444317061864,0.46793246828690493,0.02975907479472055,0.0
0.686513433905394,0.2987569126411245,1.1961099135667703,0.0
-0.33737926392952755,-0.4323718701286653,0.34396081056030636,0.0
0.07566769311402843,0.10523193635556248,-0.041013928356360904,1.0
1.1588044128260655,-1.1612350838795347,-0.18746222170528226,0.0
0.3327895047316279,-0.6917490406583335,1.8276912701535468,0.0
0.07140802174001142,-0.12590212878455373,0.033626395291633644,1.0
-0.742621388157684,0.7020974467425247,-0.2157533595771147,1.0
-1.1758552058416436,0.26767797686268047,-0.7117335465882315,0.0
0.04133877538545324,0.044900041831139104,-0.1717359530439647,1.0
0.04747487456422847,-1.2840609630806878,-0.3419068039864973,0.0
-0.5478071073768632,0.7414312771274678,-0.3094619691322091,0.0
0.09027708573814636,0.012320144102648008,-0.03654674858934164,1.0
-0.536474461942702,-0.9948907588859495,-0.5269892107364649,0.0
0.23865124864558257,-0.057889709629220236,0.1343438857698181,1.0
-0.0444611442152597,-0.038652194682143017,-0.028015934602726257,1.0
0.0974553386294834,0.030549874026644476,-0.60498303951202,1.0
0.7596410385495589,0.3175894447375559,0.978423979587282,0.0
7.171714067257518,19.685955943603425,17.4305397984845,1.0
0.09093321407228189,0.09102178033343555,-0.13973890360613014,1.0
0.3756650079029613,-0.9809959468926632,-0.3175194824495085,0.0
0.033683140611133554,-0.02216747768575217,-0.0469519960723557,1.0
1.4435734010191894,-0.055600847742661164,1.5240671864309712,0.0
0.93671152375008,-1.0379852001672951,-0.37912659913996105,0.0
1.0770985998804785,0.437724176594735,1.259436148109068,0.0
0.15935185128664986,-0.45341575582759724,-0.7405701787801574,0.0
0.041540166919019975,0.6638143063891563,-0.17990532435876924,1.0
0.4158231271301235,-0.764568489291663,-0.846224440997102,0.0
-0.6545013436866582,-0.46834615741585084,-0.45989417019839557,0.0
-0.2614353060453824,-0.5200670879017516,0.58495361648441,1.0
0.01358055905261372,0.12356799832524301,0.13832447569890036,1.0
-0.7162239237602721,1.1995531030810591,0.6104235366887742,0.0
-0.18514674885991161,-0.5396229808371151,0.5511875598736273,1.0
0.19522148947133727,0.0658214335646615,0.36606251774992965,1.0
-0.09965063770004372,0.0695722424127435,0.013373898730154163,1.0
0.10558932893941457,0.09752756945401816,-0.9395146025213871,1.0
-0.3275198111183018,1.2523700341103026,0.8968627277784241,0.0
-0.04163171569972826,0.13160692150495998,-0.129939305242436,1.0
0.042726938736059816,-1.2663603328818476,-0.2048079030848753,0.0
-0.7773541116293501,-0.9830887205930787,-0.9714466152681189,0.0
-0.3581037804626287,-0.6604891692135019,-0.3621363279979168,1.0
-0.6721124537820481,0.9969018642025855,0.36697631067415004,0.0
0.5268623001327015,-1.0539864514857997,0.2023963697503326,0.0
0.09015453012077722,0.5580877604927172,0.20366615233388818,1.0
24.749828161155754,11.093608883847605,18.268424966537257,1.0
-0.2105754517632158,0.13311827169227833,0.038711690928916916,1.0
17.160999599866635,27.506544790939895,17.479461278210717,1.0
0.23002586491807775,-0.11823579118566173,0.9889725276684134,0.0
0.3118704679966972,0.43961617970349276,-0.021711648243186558,1.0
0.128015920009199,0.20281684132729744,-0.4050893302902324,1.0
0.18290670287353014,-0.381425277465873,-0.1664666030420611,1.0
-0.2549494854057985,1.350637478133455,1.0361179834867806,0.0
-0.1087476515969257,-0.13488210284661722,0.3305311058998362,1.0
-0.5918321187187201,-0.14787051123915657,0.7833228509199917,1.0
-0.06279608852672243,-0.2062428944797699,0.13492533101076076,1.0
-0.22164678439919422,-0.32943455479473366,-0.1505171954404863,1.0
0.03615735714293566,0.03981713862273127,-0.00775704378363135,1.0
-0.5002349055454294,-1.1106130441374913,-1.7156056873745325,0.0
-0.26570069694243836,-1.0656881357459744,-0.6891936538710899,0.0
-0.0777472991624627,-0.3065708035339309,0.3614885718979824,1.0
-0.20067174216039269,-0.14773041268959874,0.045494740269110504,1.0
-1.3184723340008953,0.7926537944510637,0.8391406811956509,0.0
-0.42195863720709137,1.2577923407048037,0.899464354752214,0.0
-0.05843722025666376,-1.4613101004736675,-0.9195965327003763,0.0
-1.7039260440547583,0.542454699415327,0.4491845034827547,0.0
0.048052809353504866,-0.8563919996634093,-1.8376288241775196,0.0
0.8832586861309526,2.1841060469752307,0.04719505446114225,0.0
-0.4811534018123052,1.9034228290888162,1.3887338577259927,0.0
0.857618322343856,1.2978550897146908,1.020620385585506,0.0
0.0466423810468386,0.039257575759162146,0.1186342478198333,1.0
0.03720093231580306,0.05407683225817424,-0.17364356986061236,1.0
-0.9307652772360289,0.32370144315457755,-0.9025063964030383,0.0
0.17088258628696723,-0.7147673818078804,0.21339679207301865,1.0
0.7468084420172221,0.38458584435864507,-0.348854399077006,1.0
-0.49366570596243875,-1.3152059400865994,-1.6172124417808438,0.0
1.2571416332737293,-1.6002189473285016,-1.165243751423892,0.0
0.4749141523574747,-1.4077104266652787,0.020632631831427606,0.0
0.018789212339748028,0.2563249510454947,0.351368312665051,1.0
-0.14563635113841908,-0.10503068078846219,0.08086099401452516,1.0
0.8197866478785305,-0.3233584703630036,0.7270820543760107,0.0
0.6937334482030201,-0.6574773339698472,0.3926248417955075,0.0
-0.13965406798911137,0.1628334959738159,0.07402666168197079,1.0
-1.3728790234880335,0.9398205535379017,-0.6905179845402171,0.0
-1.2075657730392684,0.23673033987883693,-1.194727699813293,0.0
-0.05423629541723145,-0.9041752165901354,-0.031636413440779214,1.0
-0.4200402007672099,1.3454618935508247,0.4660988089764826,0.0
-0.38528364203780635,0.14328109783059612,-0.13492992087067832,1.0
-0.9077410722613816,1.5201162202007468,1.1199676671714374,0.0
-0.32004356018848995,0.9874374217006392,-0.04066467472276776,1.0
18.309767881284266,28.612360907788343,23.453563731169574,1.0
-0.5754610841107919,0.8350882568312482,-0.21660887544531068,1.0
-1.04048277963396,-1.134804408841422,-0.9501290975446033,0.0
-0.08278670426327697,0.0502050364871385,0.029473858452729654,1.0
0.06752516753596227,-0.5953003423090746,0.25459680391271805,0.0
0.06657737852204207,0.032071014811117515,0.18856940982233844,1.0
0.5815070098662833,-0.10646700082929145,0.2919235415003122,0.0
0.939923513239681,0.23236515099166055,0.4417582990358232,1.0
0.024322905283900145,-1.2248552228680303,-0.8303186053595771,0.0
0.32078737955640646,-0.2509914768115098,0.9116884326166161,1.0
-0.11356564549022312,0.5487139825960718,0.8710909647447669,1.0
1.3159439228773182,-0.3583162583966727,0.09511491747842467,0.0
0.7468110854395635,-1.2396194716776008,-0.4011906736924311,0.0
-0.2659686927020894,0.035159193311851016,-0.01838239396913191,1.0
0.7404636198256181,0.5097195635231699,1.0396116632564714,0.0
0.6433872050919931,2.37092029939699,1.2878086240131026,0.0
-0.05261624269798054,-0.11359548007779895,-0.08957026616221303,1.0
-0.34949448240979386,-0.18315816915340694,-0.7686517682761369,0.0
0.6685661801233669,1.615700417863876,0.7218332928909498,0.0
-0.34362579105332436,1.2162848914146664,1.906077667272414,0.0
-0.07917345446699696,0.14956640170128185,0.022633550116892626,1.0
0.2138733761802618,0.5915355401768232,-0.6333543927747644,1.0
1.1553102727008944,-0.1474376605635106,0.04967055227607793,1.0
-0.43301853186680866,0.19625731443304087,-1.3787448238347069,0.0
-0.6083062091060876,-0.9613423219901887,-1.2694555618490595,0.0
-0.14460286435866543,-0.1873796035821994,-0.5987107953203188,1.0
15.910217817316981,19.756477261127753,11.190607960701692,1.0
0.27543173033088725,-0.5417617906555008,0.11362278145884569,1.0
0.046000820651015434,-0.017418617326906437,0.03525052791343882,1.0
-0.522885818616926,0.22356539294039057,0.23993471567655641,1.0
0.396541812883821,0.2699899346711117,0.02825669352217696,1.0
0.049520938614565725,-0.1288507865800035,0.49003898619133485,1.0
0.02222427044687003,0.7142277294670888,-0.6229738614765866,0.0
1.2488636694157444,-0.49600437420314614,0.23193570548109216,0.0
-2.012103188662913,0.09059529088268911,-0.09206197076624338,0.0
0.8951835050987054,0.3747361520636796,-0.301297096394448,0.0
1.6335028815320431,1.0567108467068094,1.8440631559096836,0.0
0.9522554512918994,-0.9070546139110307,-0.5032997543088142,1.0
1.0500444928222705,-0.7002160128165992,0.18684947725258733,0.0
-0.13928722909801797,-0.8326334692371699,-0.4727849758556062,0.0
-0.7800179836502836,0.03307908932989439,1.0380217501664766,1.0
0.21623909243583445,0.8292477261876341,0.07575906582104486,1.0
19.910327384205413,21.799226985766353,13.702570571741811,1.0
0.024398129930046666,-0.03158018687357861,-0.011159397077832586,1.0
0.5397093700778943,-0.3368264200028262,-0.1515401464638715,1.0
0.136156670400296,0.6317311307458815,-1.1859701363011728,0.0
1.8440454234036356,-0.320950091119772,0.6258587631732191,0.0
0.5437061240505643,-0.21230068854789952,-0.43075529205673224,1.0
0.7260399049886741,-2.020050219052427,0.5105469419224873,0.0
-0.08647620088743696,-0.563080012186502,0.3877221616951974,1.0
0.2612955573821523,0.27825268839075656,-0.9078583707015825,1.0
0.0689622476190881,0.5439858915474878,-0.25942709890353016,1.0
1.470736233196693,-1.3109594773711015,-0.1465584630887966,0.0
0.8454780311065693,-1.0563759269050457,0.1986352630113889,0.0
-1.3681441459842199,0.86223787828653,0.519324895230155,0.0
0.8091575057218323,0.4773103208287134,0.66848763804415,0.0
-0.22022634680485845,1.1456690344156273,0.6436607800959044,0.0
-1.4132446532957177,-0.36102815118731435,0.3039209678019569,0.0
0.12249576321259592,-0.437754270195408,-1.018546072655671,0.0
-0.09681306900713839,0.27181184630611754,0.11613476527739176,1.0
0.8346301878088619,-0.33429043325495245,-0.37224370892390796,1.0
1.7748420522529815,-0.14017111846514968,0.8367630205345273,0.0
-0.23117521931157048,-1.6735925483804392,0.6008587575956501,0.0
0.02298001720718569,-0.038861863866031854,0.032792255351177906,1.0
-0.020551157487039284,0.15833455084063874,0.9960414546595293,0.0
0.06336327196661161,-0.03587209766682774,-0.061006448848954634,1.0
-0.5161647292804906,-2.357277579261443,-0.9486592127636841,0.0
0.969522742914105,-0.8286301680846286,-1.5369746326665037,0.0
1.3095265972031738,0.3937908603894268,0.5999897714357041,0.0
21.270891775036677,29.726396257967693,25.12085988744909,1.0
0.1913670320836337,-0.43232176155428637,-0.023619820063174313,0.0
-0.10455784581338766,0.030560421320943332,0.012218042235343078,1.0
-0.09739990675286167,0.43148870039689513,0.884919399818716,1.0
-0.8549708986314863,-0.47797705427702053,-0.01771869921065658,0.0
-1.0964191020498184,-0.11462808681497846,-0.49807975188098835,1.0
1.5810414673813449,0.18262831525067727,1.5326325893825143,0.0
0.11323946564472286,0.1491114873699769,-0.01669572026855767,1.0
1.088500397077242,-0.9424510413905127,1.9407338868018336,0.0
-0.4250287422185072,1.6297196551633304,0.5793094159556266,0.0
-0.14746956083969365,-0.10106632680357597,-0.12567246434824023,1.0
1.0871019105430602,-1.1777820168443505,-0.14396260454188195,0.0
-0.028872071014651585,-0.041606094036933154,-0.056605921993663544,1.0
-0.08159486658233844,-0.014004862460257837,-0.09021049766126278,1.0
-0.1439141851974366,0.06615106678842478,1.0766143616861794,0.0
18.561204074827142,17.311675866394317,25.33063386634274,1.0
12.922736249533102,11.681311906839225,24.715221767534008,1.0
0.03608103242366536,0.04402358485568506,0.1227978951640729,1.0
1.1054704160943685,-0.0859017017211679,-0.8814345851605827,0.0
-1.5201297323014393,-0.6989853879877242,-1.0215577853629851,0.0
-0.7519625497360022,-0.16025379661433836,0.15608369813212306,1.0
-0.5910636460605961,0.24479372796526225,0.21350746519378616,1.0
0.14373903461576448,1.4005322504206863,1.5423041788363308,0.0
0.984897168473355,-0.39398645608276506,-0.3682813685247551,1.0
0.1977778633948773,-0.7436589091077265,-0.49898061514497427,1.0
0.18358353782120782,0.07245107236480829,0.006818620236750387,1.0
-0.43596706932117546,-1.5570380364621421,0.27698902669190995,0.0
0.4564523968252214,-0.8698908039507234,0.9692952703024107,0.0
-0.6785568824232882,-1.2267028029183922,-0.7912214497275063,0.0
-0.095396858126378,0.05673515308730386,0.0056983646302207445,1.0
-0.226430854231231,0.28641538399217176,-0.5051558053711803,1.0
-0.7663089870901335,1.2057233436968153,-0.3762232204879059,0.0
0.16174101764487026,1.5473515598660785,0.7801524087876764,0.0
0.2467205617759624,-0.0068497396131920515,-0.27684806248930166,1.0
-0.1634298468785872,-0.04084890354655666,-0.14472241250466913,1.0
-0.16025579701181775,-0.27436974935990344,-0.16560244055983203,0.0
1.4853168778304302,0.873056835809621,0.29657525276593066,0.0
0.096244080111548,0.8442010044959849,0.1820134190818788,1.0
0.052621446807906924,-0.06988450783965497,-0.19594431875187332,1.0
0.18487739741941595,-0.4158514585595428,-0.39562335484661887,1.0
0.025934060557430416,0.731794747233564,-1.034770330710061,0.0
-0.8716890912004284,0.9036269284949807,-0.09034102486623644,0.0
0.01624277465130516,0.008946646173875899,0.06940189905232673,1.0
0.04745870152804617,0.34169827972759426,0.39738428705498063,1.0
-0.19560890729817448,1.0894377042127437,0.6995245535368277,1.0
-0.8063518015229345,1.5450264360345516,-0.1608963749908744,0.0
-0.9389458573787312,0.12025897554208505,-0.231648584954669,1.0
-0.11037343193379914,0.037338152492651634,0.032602468406784865,1.0
-0.9467901801553599,0.1046464647833205,-0.38061711675883053,1.0
-1.15708442865148,0.08698922247187302,-0.4724505596465993,0.0
0.26863717491114597,-1.4062468736555247,-1.7211258937396643,0.0
0.15195309248281003,0.06652955327862087,0.1093782570138784,1.0
-0.0029805815844646663,-0.1500620898813498,0.16088198557358535,1.0
-0.6996664014998397,0.08866046735107788,-0.7437668692509627,0.0
15.686620432925007,13.539080238465523,11.654581021973344,1.0
-0.8189390885125625,0.32509790151579854,-0.4527805040520586,0.0
-0.5095534713614446,-1.572894673105395,0.22921289007509932,0.0
-1.5869121454381674,-0.1448790265154638,0.013622847319211373,0.0
-0.23223789305708104,-1.0900533420985679,-0.6955401915815126,0.0
0.9610415065597776,-1.9405949211640297,0.6512729176599635,0.0
1.4386727085419477,1.1300515103410504,1.778808893073955,0.0
0.11411497073846828,0.0814746434570357,0.11444367406846641,1.0
-0.264784430379305,0.7906339531785046,-0.03170443961065908,1.0
-0.11943528314148506,-0.20458647343811043,-0.8478138538246222,0.0
-0.1413734460848251,-0.6055617207316544,-0.7503149064431425,0.0
0.03250879037778342,0.019324709981359683,-0.0026620136849715773,1.0
0.32552622514273893,-0.2742062203729493,-0.36302387406848347,1.0
0.02298702048193308,0.04418482101425776,0.1384417182443579,1.0
0.12716693856927686,1.2665877982122675,0.33552275572246965,0.0
0.7237788934494336,-0.4501141437315978,0.5300610907455919,0.0
-0.6002914185205828,1.1507602754366604,-0.6129708488707932,0.0
-0.009999642126219361,0.15197940357005843,0.6324543893571415,1.0
-1.2157677607614463,1.0942084976561255,0.2797930582691549,0.0
-1.0838916916736379,0.7719424366329388,0.10871879299925102,0.0
-0.20576826695725156,0.04445704188493546,0.07359607399895322,1.0
-0.13111281178519682,-0.20163945488510904,-0.0005543054232303274,1.0
1.924036996950628,-0.15828486424278987,0.0022808919005659067,0.0
12.964300243062016,30.011199210642047,21.76737479472625,1.0
0.08100499356430454,0.7620878733803061,1.0773260127041895,0.0
-0.6847887126197266,-0.036211076176766076,-0.5755464568104295,1.0
0.18348148712865875,-1.3021161008429738,-1.0186562576949127,0.0
0.37149702633339365,1.4107841494824693,0.7079610949634962,0.0
-0.760942185202682,-0.39616759734119256,-0.8202732875199423,0.0
0.3429693517460785,0.018276568657885017,-0.8327670289498292,1.0
-0.6019821226295272,1.2739142656326594,0.9299556085101798,0.0
-0.03641471096048782,-0.350553123115523,0.9713844576756944,0.0
-0.6618247101464961,-0.7214318624084948,-0.45025400330759213,0.0
-0.28791214484184774,0.20135929822092102,0.48328049127602585,1.0
-0.823948213517553,-1.1325793850009926,-1.400343244741262,0.0
-1.3454060447917877,0.7628763160151,1.2614206788069513,0.0
-0.08830782887724913,0.016258486768826973,0.020447209140311853,1.0
